AccelerometerX,AccelerometerY,AccelerometerZ,GyroX,GyroY,GyroZ,AccToGX,AccToGY,AccToGZ,GyroToDegPerSecondX,GyroToDegPerSecondY,GyroToDegPerSecondZ,TimeStamp
-7615,-24,-4101,-414,325,87,-0.9295654296875,-0.0029296875,-0.5006103515625,-12.621951219512196,9.908536585365855,2.6524390243902443,1565282308013
-7883,560,-4014,-1415,-58,374,-0.9622802734375,0.068359375,-0.489990234375,-43.140243902439025,-1.7682926829268295,11.402439024390246,1565282308017
-7859,569,-3981,-1516,126,365,-0.9593505859375,0.0694580078125,-0.4859619140625,-46.21951219512196,3.8414634146341466,11.128048780487806,1565282308021
-8025,572,-3970,-1697,-310,305,-0.9796142578125,0.06982421875,-0.484619140625,-51.737804878048784,-9.451219512195122,9.298780487804878,1565282308026
-7974,570,-4210,-1782,-144,256,-0.973388671875,0.069580078125,-0.513916015625,-54.32926829268293,-4.390243902439025,7.8048780487804885,1565282308032
-7664,565,-4193,-2120,-224,-58,-0.935546875,0.0689697265625,-0.5118408203125,-64.63414634146342,-6.829268292682928,-1.7682926829268295,1565282308118
-7317,542,-3822,-2634,-474,-350,-0.8931884765625,0.066162109375,-0.466552734375,-80.3048780487805,-14.451219512195124,-10.670731707317074,1565282308122
-7519,536,-3802,-2684,-468,-371,-0.9178466796875,0.0654296875,-0.464111328125,-81.82926829268294,-14.26829268292683,-11.310975609756099,1565282308127
-7473,532,-3784,-2477,-449,-143,-0.9122314453125,0.06494140625,-0.4619140625,-75.51829268292684,-13.689024390243903,-4.359756097560976,1565282308132
-7436,530,-3759,-2525,-416,-176,-0.90771484375,0.064697265625,-0.4588623046875,-76.98170731707317,-12.682926829268293,-5.365853658536586,1565282308136
-7158,540,-3747,-2874,-581,-243,-0.873779296875,0.06591796875,-0.4573974609375,-87.6219512195122,-17.713414634146343,-7.408536585365854,1565282308223
-7821,441,-4110,-3335,-3,-323,-0.9547119140625,0.0538330078125,-0.501708984375,-101.67682926829269,-0.09146341463414635,-9.847560975609756,1565282308226
-7935,409,-4104,-3317,264,19,-0.9686279296875,0.0499267578125,-0.5009765625,-101.12804878048782,8.048780487804878,0.5792682926829269,1565282308232
-8241,631,-3839,-3681,-23,100,-1.0059814453125,0.0770263671875,-0.4686279296875,-112.22560975609757,-0.701219512195122,3.048780487804878,1565282308237
-8252,588,-3826,-3532,-62,-111,-1.00732421875,0.07177734375,-0.467041015625,-107.6829268292683,-1.8902439024390245,-3.3841463414634148,1565282308242
-8243,230,-3759,-3887,-120,105,-1.0062255859375,0.028076171875,-0.4588623046875,-118.50609756097562,-3.658536585365854,3.2012195121951224,1565282308328
-7657,344,-3536,-3789,-369,-819,-0.9346923828125,0.0419921875,-0.431640625,-115.51829268292684,-11.250000000000002,-24.969512195121954,1565282308333
-8009,320,-3222,-3749,-145,-850,-0.9776611328125,0.0390625,-0.393310546875,-114.29878048780489,-4.420731707317073,-25.914634146341466,1565282308337
-7998,311,-3431,-3733,-201,-819,-0.976318359375,0.0379638671875,-0.4188232421875,-113.81097560975611,-6.128048780487806,-24.969512195121954,1565282308345
-7968,293,-3389,-3729,-248,-798,-0.97265625,0.0357666015625,-0.4136962890625,-113.68902439024392,-7.560975609756098,-24.32926829268293,1565282308350
-7642,-16,-3036,-3740,-548,-779,-0.932861328125,-0.001953125,-0.37060546875,-114.02439024390245,-16.70731707317073,-23.750000000000004,1565282308433
-7563,79,-2724,-3563,-551,-508,-0.9232177734375,0.0096435546875,-0.33251953125,-108.62804878048782,-16.79878048780488,-15.487804878048783,1565282308438
-7621,122,-2930,-3517,-528,-491,-0.9302978515625,0.014892578125,-0.357666015625,-107.22560975609757,-16.097560975609756,-14.969512195121952,1565282308445
-7655,-104,-2916,-3697,-221,-407,-0.9344482421875,-0.0126953125,-0.35595703125,-112.71341463414635,-6.737804878048781,-12.408536585365855,1565282308451
-7941,-69,-2907,-3670,-207,-594,-0.9693603515625,-0.0084228515625,-0.3548583984375,-111.89024390243904,-6.310975609756098,-18.10975609756098,1565282308456
-7954,-31,-2910,-3652,-197,-517,-0.970947265625,-0.0037841796875,-0.355224609375,-111.34146341463416,-6.00609756097561,-15.76219512195122,1565282308538
-7979,318,-2847,-3471,24,-328,-0.9739990234375,0.038818359375,-0.3475341796875,-105.82317073170732,0.7317073170731708,-10.0,1565282308543
-7992,332,-2826,-3470,45,-347,-0.9755859375,0.04052734375,-0.344970703125,-105.79268292682927,1.3719512195121952,-10.579268292682928,1565282308549
-8033,360,-2542,-3711,65,-376,-0.9805908203125,0.0439453125,-0.310302734375,-113.14024390243904,1.981707317073171,-11.463414634146343,1565282308553
-8048,371,-2537,-3703,60,-381,-0.982421875,0.0452880859375,-0.3096923828125,-112.89634146341464,1.829268292682927,-11.615853658536587,1565282308557
-8057,379,-2536,-3693,52,-384,-0.9835205078125,0.0462646484375,-0.3095703125,-112.59146341463416,1.5853658536585367,-11.707317073170733,1565282308643
-7844,136,-2537,-3316,-282,-339,-0.95751953125,0.0166015625,-0.3096923828125,-101.09756097560977,-8.597560975609756,-10.335365853658537,1565282308647
-7831,146,-2545,-3287,-295,-323,-0.9559326171875,0.017822265625,-0.3106689453125,-100.21341463414635,-8.99390243902439,-9.847560975609756,1565282308652
-7812,154,-2540,-3255,-303,-315,-0.95361328125,0.018798828125,-0.31005859375,-99.23780487804879,-9.237804878048781,-9.603658536585368,1565282308656
-8062,158,-2531,-3224,-295,-338,-0.984130859375,0.019287109375,-0.3089599609375,-98.29268292682927,-8.99390243902439,-10.30487804878049,1565282308661
-7829,153,-2526,-3410,3,-357,-0.9556884765625,0.0186767578125,-0.308349609375,-103.96341463414635,0.09146341463414635,-10.884146341463415,1565282308748
-8293,157,-2680,-2907,25,-373,-1.0123291015625,0.0191650390625,-0.3271484375,-88.62804878048782,0.7621951219512195,-11.371951219512196,1565282308752
-8293,166,-2665,-2520,-268,-383,-1.0123291015625,0.020263671875,-0.3253173828125,-76.82926829268294,-8.170731707317074,-11.676829268292684,1565282308757
-8292,182,-2645,-2459,-284,-144,-1.01220703125,0.022216796875,-0.3228759765625,-74.96951219512196,-8.658536585365855,-4.390243902439025,1565282308761
-8288,200,-2621,-2657,-303,-166,-1.01171875,0.0244140625,-0.3199462890625,-81.00609756097562,-9.237804878048781,-5.060975609756098,1565282308766
-8264,512,-2590,-2601,-330,-210,-1.0087890625,0.0625,-0.316162109375,-79.29878048780489,-10.060975609756099,-6.402439024390245,1565282308853
-8198,412,-2231,-2420,-182,-550,-1.000732421875,0.05029296875,-0.2723388671875,-73.78048780487805,-5.548780487804878,-16.76829268292683,1565282308873
-7918,413,-2231,-2426,-189,-562,-0.966552734375,0.0504150390625,-0.2723388671875,-73.96341463414635,-5.76219512195122,-17.134146341463417,1565282308887
-7899,397,-2211,-2180,-186,-578,-0.9642333984375,0.0484619140625,-0.2698974609375,-66.46341463414635,-5.670731707317073,-17.621951219512198,1565282308892
-7879,384,-2202,-2199,-157,-627,-0.9617919921875,0.046875,-0.268798828125,-67.04268292682927,-4.786585365853659,-19.115853658536587,1565282308900
-7873,624,-2188,-2201,-141,-396,-0.9610595703125,0.076171875,-0.26708984375,-67.10365853658537,-4.298780487804878,-12.073170731707318,1565282308958
-7900,239,-2345,-2353,-307,-815,-0.96435546875,0.0291748046875,-0.2862548828125,-71.73780487804879,-9.359756097560977,-24.84756097560976,1565282308962
-7901,220,-2333,-2328,-303,-835,-0.9644775390625,0.02685546875,-0.2847900390625,-70.97560975609757,-9.237804878048781,-25.457317073170735,1565282308966
-7901,205,-2315,-2044,-306,-851,-0.9644775390625,0.0250244140625,-0.2825927734375,-62.31707317073171,-9.329268292682928,-25.945121951219516,1565282308971
-7871,177,-2306,-1978,-326,-881,-0.9608154296875,0.0216064453125,-0.281494140625,-60.304878048780495,-9.939024390243903,-26.85975609756098,1565282308976
-7847,168,-2043,-1945,-334,-651,-0.9578857421875,0.0205078125,-0.2493896484375,-59.29878048780488,-10.182926829268293,-19.847560975609756,1565282309063
-8003,293,-1939,-1696,-259,-1098,-0.9769287109375,0.0357666015625,-0.2366943359375,-51.707317073170735,-7.896341463414635,-33.47560975609756,1565282309067
-8022,284,-1921,-1919,13,-1102,-0.979248046875,0.03466796875,-0.2344970703125,-58.50609756097561,0.39634146341463417,-33.59756097560976,1565282309074
-8043,278,-2163,-1886,23,-1096,-0.9818115234375,0.033935546875,-0.2640380859375,-57.50000000000001,0.701219512195122,-33.41463414634146,1565282309080
-8055,291,-2145,-1854,23,-1054,-0.9832763671875,0.0355224609375,-0.2618408203125,-56.524390243902445,0.701219512195122,-32.13414634146342,1565282309092
-8054,305,-2142,-1807,28,-1028,-0.983154296875,0.0372314453125,-0.261474609375,-55.09146341463415,0.853658536585366,-31.34146341463415,1565282309168
-7892,338,-2076,-1857,-86,-880,-0.96337890625,0.041259765625,-0.25341796875,-56.615853658536594,-2.6219512195121952,-26.82926829268293,1565282309171
-7889,336,-2061,-1875,-58,-873,-0.9630126953125,0.041015625,-0.2515869140625,-57.16463414634147,-1.7682926829268295,-26.615853658536587,1565282309176
-7872,334,-2071,-1909,-14,-873,-0.9609375,0.040771484375,-0.2528076171875,-58.201219512195124,-0.426829268292683,-26.615853658536587,1565282309180
-7860,328,-2076,-1680,283,-886,-0.95947265625,0.0400390625,-0.25341796875,-51.21951219512196,8.628048780487806,-27.012195121951223,1565282309185
-7870,319,-2073,-1718,342,-656,-0.960693359375,0.0389404296875,-0.2530517578125,-52.37804878048781,10.426829268292684,-20.0,1565282309274
-7960,-20,-2122,-2020,414,-1150,-0.9716796875,-0.00244140625,-0.259033203125,-61.585365853658544,12.621951219512196,-35.0609756097561,1565282309279
-7670,-27,-2164,-2309,447,-923,-0.936279296875,-0.0032958984375,-0.26416015625,-70.39634146341464,13.628048780487806,-28.14024390243903,1565282309286
-7662,-57,-1927,-2409,821,-1013,-0.935302734375,-0.0069580078125,-0.2352294921875,-73.44512195121952,25.03048780487805,-30.884146341463417,1565282309294
-7955,-76,-1943,-2207,643,-1306,-0.9710693359375,-0.00927734375,-0.2371826171875,-67.28658536585367,19.603658536585368,-39.81707317073171,1565282309311
-8018,-104,-1959,-2265,720,-1329,-0.978759765625,-0.0126953125,-0.2391357421875,-69.0548780487805,21.951219512195124,-40.518292682926834,1565282309378
-8224,65,-2022,-2530,1050,-1050,-1.00390625,0.0079345703125,-0.246826171875,-77.13414634146342,32.01219512195122,-32.01219512195122,1565282309384
-7909,103,-2319,-2526,752,-724,-0.9654541015625,0.0125732421875,-0.2830810546875,-77.01219512195122,22.926829268292686,-22.073170731707318,1565282309389
-7824,-101,-2371,-2526,719,-664,-0.955078125,-0.0123291015625,-0.2894287109375,-77.01219512195122,21.920731707317074,-20.243902439024392,1565282309393
-7943,-5,-2232,-2538,753,-862,-0.9696044921875,-6.103515625E-4,-0.2724609375,-77.37804878048782,22.957317073170735,-26.28048780487805,1565282309397
-7666,290,-2285,-2865,1064,-850,-0.935791015625,0.035400390625,-0.2789306640625,-87.34756097560977,32.43902439024391,-25.914634146341466,1565282309483
-7783,321,-2944,-2945,1301,-827,-0.9500732421875,0.0391845703125,-0.359375,-89.78658536585367,39.66463414634147,-25.213414634146343,1565282309491
-7790,287,-2741,-2990,1166,-689,-0.950927734375,0.0350341796875,-0.3345947265625,-91.15853658536587,35.54878048780488,-21.00609756097561,1565282309499
-7566,282,-2795,-2992,1221,-742,-0.923583984375,0.034423828125,-0.3411865234375,-91.21951219512196,37.22560975609756,-22.621951219512198,1565282309510
-7582,283,-3121,-2991,1255,-1039,-0.925537109375,0.0345458984375,-0.3809814453125,-91.18902439024392,38.26219512195122,-31.676829268292686,1565282309518
-7789,265,-3021,-3017,1565,-1131,-0.9508056640625,0.0323486328125,-0.3687744140625,-91.98170731707317,47.713414634146346,-34.48170731707317,1565282309589
-7530,-105,-3843,-2949,1693,-1616,-0.919189453125,-0.0128173828125,-0.4691162109375,-89.90853658536587,51.61585365853659,-49.268292682926834,1565282309597
-7482,-57,-3915,-3141,1770,-1662,-0.913330078125,-0.0069580078125,-0.4779052734375,-95.76219512195122,53.963414634146346,-50.670731707317074,1565282309605
-7480,-37,-3722,-3120,2069,-1662,-0.9130859375,-0.0045166015625,-0.454345703125,-95.1219512195122,63.07926829268293,-50.670731707317074,1565282309611
-7474,-19,-3779,-3110,2105,-1649,-0.912353515625,-0.0023193359375,-0.4613037109375,-94.81707317073172,64.17682926829269,-50.274390243902445,1565282309620
-7471,-4,-3909,-3110,2132,-1624,-0.9119873046875,-4.8828125E-4,-0.4771728515625,-94.81707317073172,65.0,-49.51219512195122,1565282309693
-7492,-2,-4712,-2979,2095,-1593,-0.91455078125,-2.44140625E-4,-0.5751953125,-90.82317073170732,63.8719512195122,-48.56707317073171,1565282309700
-7489,-9,-4535,-3006,2061,-1606,-0.9141845703125,-0.0010986328125,-0.5535888671875,-91.64634146341464,62.835365853658544,-48.963414634146346,1565282309708
-7493,-58,-4953,-3039,1746,-1646,-0.9146728515625,-0.007080078125,-0.6046142578125,-92.65243902439025,53.23170731707317,-50.1829268292683,1565282309716
-7505,-85,-4786,-3360,1726,-1413,-0.9161376953125,-0.0103759765625,-0.584228515625,-102.43902439024392,52.6219512195122,-43.07926829268293,1565282309726
-7539,-112,-5130,-3385,1716,-1438,-0.9202880859375,-0.013671875,-0.626220703125,-103.20121951219514,52.31707317073171,-43.84146341463415,1565282309798
-7787,-353,-5675,-3300,1235,-1817,-0.9505615234375,-0.0430908203125,-0.6927490234375,-100.60975609756099,37.65243902439025,-55.396341463414636,1565282309801
-7565,-375,-5719,-3306,1166,-1810,-0.9234619140625,-0.0457763671875,-0.6981201171875,-100.79268292682927,35.54878048780488,-55.1829268292683,1565282309806
-7591,-158,-5518,-3305,973,-1525,-0.9266357421875,-0.019287109375,-0.673583984375,-100.76219512195122,29.664634146341466,-46.493902439024396,1565282309818
-7571,-161,-5531,-3296,1113,-1510,-0.9241943359375,-0.0196533203125,-0.6751708984375,-100.48780487804879,33.9329268292683,-46.03658536585366,1565282309825
-7787,-169,-5543,-3284,739,-1505,-0.9505615234375,-0.0206298828125,-0.6766357421875,-100.1219512195122,22.53048780487805,-45.88414634146342,1565282309903
-7506,-239,-5674,-3334,-4,-1851,-0.916259765625,-0.0291748046875,-0.692626953125,-101.64634146341464,-0.12195121951219513,-56.4329268292683,1565282309908
-7485,-246,-5657,-3032,-85,-1882,-0.9136962890625,-0.030029296875,-0.6905517578125,-92.43902439024392,-2.5914634146341466,-57.37804878048781,1565282309912
-7460,-527,-5364,-2987,98,-1698,-0.91064453125,-0.0643310546875,-0.65478515625,-91.06707317073172,2.987804878048781,-51.768292682926834,1565282309919
-7451,-553,-5337,-3175,-297,-1725,-0.9095458984375,-0.0675048828125,-0.6514892578125,-96.79878048780489,-9.05487804878049,-52.59146341463415,1565282309924
-7433,-585,-5305,-3151,-368,-1744,-0.9073486328125,-0.0714111328125,-0.6475830078125,-96.06707317073172,-11.219512195121952,-53.17073170731708,1565282310008
-6818,-805,-5438,-2732,-488,-1933,-0.832275390625,-0.0982666015625,-0.663818359375,-83.29268292682927,-14.878048780487806,-58.9329268292683,1565282310011
-6806,-819,-5422,-2728,-480,-2001,-0.830810546875,-0.0999755859375,-0.661865234375,-83.17073170731707,-14.634146341463415,-61.00609756097562,1565282310016
-6791,-827,-5403,-2731,-485,-2011,-0.8289794921875,-0.1009521484375,-0.6595458984375,-83.26219512195122,-14.786585365853659,-61.310975609756106,1565282310022
-7022,-831,-5395,-2729,-499,-2003,-0.857177734375,-0.1014404296875,-0.6585693359375,-83.20121951219512,-15.213414634146343,-61.06707317073171,1565282310027
-6990,-827,-5390,-2728,-773,-1984,-0.853271484375,-0.1009521484375,-0.657958984375,-83.17073170731707,-23.56707317073171,-60.487804878048784,1565282310113
-6941,-173,-5336,-2759,-456,-1893,-0.8472900390625,-0.0211181640625,-0.6513671875,-84.1158536585366,-13.902439024390246,-57.713414634146346,1565282310116
-6817,-321,-5661,-2794,-475,-1483,-0.8321533203125,-0.0391845703125,-0.6910400390625,-85.1829268292683,-14.481707317073171,-45.213414634146346,1565282310121
-6878,-273,-5706,-2796,-511,-1639,-0.839599609375,-0.0333251953125,-0.696533203125,-85.2439024390244,-15.579268292682928,-49.96951219512196,1565282310125
-7190,39,-5536,-2787,-811,-1277,-0.877685546875,0.0047607421875,-0.67578125,-84.96951219512196,-24.725609756097562,-38.9329268292683,1565282310129
-7065,-104,-5575,-2767,-653,-1338,-0.8624267578125,-0.0126953125,-0.6805419921875,-84.35975609756099,-19.908536585365855,-40.79268292682927,1565282310218
-7643,6,-5792,-3089,-1180,-1062,-0.9329833984375,7.32421875E-4,-0.70703125,-94.17682926829269,-35.97560975609756,-32.37804878048781,1565282310221
-8043,-136,-5818,-3136,-1272,-1299,-0.9818115234375,-0.0166015625,-0.710205078125,-95.60975609756099,-38.78048780487805,-39.60365853658537,1565282310226
-8260,-583,-5845,-3183,-1257,-1229,-1.00830078125,-0.0711669921875,-0.7135009765625,-97.04268292682927,-38.32317073170732,-37.46951219512196,1565282310230
-8556,-811,-5800,-3009,-1219,-1429,-1.04443359375,-0.0989990234375,-0.7080078125,-91.73780487804879,-37.16463414634147,-43.56707317073171,1565282310234
-8594,-995,-5710,-3345,-1253,-1860,-1.049072265625,-0.1214599609375,-0.697021484375,-101.98170731707317,-38.201219512195124,-56.707317073170735,1565282310323
-7729,-1577,-4888,-2336,-3045,-2813,-0.9434814453125,-0.1925048828125,-0.5966796875,-71.21951219512195,-92.83536585365854,-85.76219512195122,1565282310329
-7689,-1612,-4537,-1963,-3343,-3103,-0.9385986328125,-0.19677734375,-0.5538330078125,-59.84756097560976,-101.92073170731709,-94.60365853658537,1565282310338
-7325,-1644,-4374,-1754,-3250,-3111,-0.8941650390625,-0.20068359375,-0.533935546875,-53.47560975609757,-99.08536585365854,-94.84756097560977,1565282310351
-7523,-1654,-4221,-1682,-3592,-3091,-0.9183349609375,-0.201904296875,-0.5152587890625,-51.28048780487806,-109.51219512195122,-94.23780487804879,1565282310358
-7468,-1409,-3808,-1882,-3658,-2777,-0.91162109375,-0.1719970703125,-0.46484375,-57.37804878048781,-111.52439024390245,-84.66463414634147,1565282310428
-7428,-1744,-2928,-1269,-3702,-2115,-0.90673828125,-0.212890625,-0.357421875,-38.68902439024391,-112.8658536585366,-64.48170731707317,1565282310431
-7486,-1758,-2541,-1205,-3664,-1759,-0.913818359375,-0.214599609375,-0.3101806640625,-36.737804878048784,-111.70731707317074,-53.62804878048781,1565282310436
-7551,-1767,-2657,-1408,-3630,-1899,-0.9217529296875,-0.2156982421875,-0.3243408203125,-42.926829268292686,-110.67073170731709,-57.896341463414636,1565282310441
-7373,-1741,-2370,-1310,-3595,-1611,-0.9000244140625,-0.2125244140625,-0.289306640625,-39.93902439024391,-109.60365853658537,-49.11585365853659,1565282310446
-7386,-1702,-1985,-1006,-3590,-1199,-0.901611328125,-0.207763671875,-0.2423095703125,-30.670731707317074,-109.45121951219514,-36.55487804878049,1565282310534
-7639,-1186,-1169,-1346,-2786,-21,-0.9324951171875,-0.144775390625,-0.1427001953125,-41.03658536585366,-84.93902439024392,-0.6402439024390244,1565282310538
-7631,-1159,-1376,-1399,-2703,143,-0.9315185546875,-0.1414794921875,-0.16796875,-42.65243902439025,-82.40853658536587,4.359756097560976,1565282310544
-7615,-1396,-1322,-1192,-2866,546,-0.9295654296875,-0.17041015625,-0.161376953125,-36.34146341463415,-87.37804878048782,16.646341463414636,1565282310550
-7571,-1383,-1297,-1277,-2640,785,-0.9241943359375,-0.1688232421875,-0.1583251953125,-38.9329268292683,-80.48780487804879,23.932926829268293,1565282310556
-7795,-1383,-1021,-1563,-2260,874,-0.9515380859375,-0.1688232421875,-0.1246337890625,-47.65243902439025,-68.90243902439025,26.646341463414636,1565282310638
-7401,-1217,-1023,-1201,-1260,711,-0.9034423828125,-0.1485595703125,-0.1248779296875,-36.61585365853659,-38.41463414634147,21.676829268292686,1565282310641
-7417,-1233,-1281,-1366,-992,893,-0.9053955078125,-0.1505126953125,-0.1563720703125,-41.646341463414636,-30.243902439024392,27.225609756097562,1565282310646
-7699,-1252,-1020,-1312,-1127,860,-0.9398193359375,-0.15283203125,-0.12451171875,-40.0,-34.359756097560975,26.219512195121954,1565282310650
-7733,-1270,-1012,-1000,-756,826,-0.9439697265625,-0.155029296875,-0.12353515625,-30.487804878048784,-23.04878048780488,25.182926829268293,1565282310656
-7560,-1578,-971,-941,-653,796,-0.9228515625,-0.192626953125,-0.1185302734375,-28.689024390243905,-19.908536585365855,24.26829268292683,1565282310744
-7748,-1480,-1100,-147,-387,810,-0.94580078125,-0.1806640625,-0.13427734375,-4.481707317073171,-11.79878048780488,24.695121951219516,1565282310755
-7721,-1493,-1072,-288,-608,799,-0.9425048828125,-0.1822509765625,-0.130859375,-8.78048780487805,-18.53658536585366,24.35975609756098,1565282310765
-7712,-1484,-1062,-55,-547,785,-0.94140625,-0.18115234375,-0.129638671875,-1.676829268292683,-16.676829268292686,23.932926829268293,1565282310776
-7702,-1468,-1062,319,-515,781,-0.940185546875,-0.17919921875,-0.129638671875,9.725609756097562,-15.701219512195124,23.8109756097561,1565282310793
-7691,-1421,-1076,282,-183,787,-0.9388427734375,-0.1734619140625,-0.13134765625,8.597560975609756,-5.579268292682928,23.993902439024392,1565282310848
-7706,-1615,-765,1079,80,756,-0.940673828125,-0.1971435546875,-0.0933837890625,32.896341463414636,2.439024390243903,23.04878048780488,1565282310852
-7704,-1619,-755,961,-95,1064,-0.9404296875,-0.1976318359375,-0.0921630859375,29.29878048780488,-2.8963414634146343,32.43902439024391,1565282310858
-7696,-1618,-744,1288,-60,1088,-0.939453125,-0.197509765625,-0.0908203125,39.268292682926834,-1.829268292682927,33.170731707317074,1565282310862
-7664,-1594,-731,1362,-28,1113,-0.935546875,-0.194580078125,-0.0892333984375,41.524390243902445,-0.853658536585366,33.9329268292683,1565282310866
-7402,-1571,-723,1257,312,1135,-0.903564453125,-0.1917724609375,-0.0882568359375,38.32317073170732,9.51219512195122,34.60365853658537,1565282310953
-7718,-1121,-714,2051,610,1280,-0.942138671875,-0.1368408203125,-0.087158203125,62.53048780487806,18.597560975609756,39.024390243902445,1565282310957
-7719,-1042,-712,2122,620,1311,-0.9422607421875,-0.127197265625,-0.0869140625,64.69512195121952,18.902439024390244,39.96951219512196,1565282310961
-7719,-702,-721,1940,624,1332,-0.9422607421875,-0.085693359375,-0.0880126953125,59.146341463414636,19.02439024390244,40.60975609756098,1565282310965
-7781,-843,-1060,2322,430,1316,-0.9498291015625,-0.1029052734375,-0.12939453125,70.79268292682927,13.109756097560977,40.1219512195122,1565282310970
-7944,-870,-937,2337,831,1009,-0.9697265625,-0.106201171875,-0.1143798828125,71.25,25.335365853658537,30.762195121951223,1565282311058
-8834,-255,-1190,2028,718,1390,-1.078369140625,-0.0311279296875,-0.145263671875,61.82926829268293,21.890243902439025,42.37804878048781,1565282311062
-8908,-212,-1196,1922,1036,1367,-1.08740234375,-0.02587890625,-0.14599609375,58.59756097560976,31.58536585365854,41.676829268292686,1565282311066
-8991,-262,-1543,2138,759,1159,-1.0975341796875,-0.031982421875,-0.1883544921875,65.1829268292683,23.140243902439025,35.33536585365854,1565282311070
-8774,-108,-1649,2136,838,1158,-1.071044921875,-0.01318359375,-0.2012939453125,65.1219512195122,25.54878048780488,35.30487804878049,1565282311075
-8566,296,-1496,2080,813,1023,-1.045654296875,0.0361328125,-0.1826171875,63.41463414634147,24.78658536585366,31.189024390243905,1565282311163
-7865,861,-2294,992,1378,253,-0.9600830078125,0.1051025390625,-0.280029296875,30.243902439024392,42.01219512195122,7.713414634146342,1565282311166
-7825,835,-2652,1138,1160,231,-0.9552001953125,0.1019287109375,-0.32373046875,34.69512195121951,35.36585365853659,7.0426829268292686,1565282311173
-8058,787,-2487,1034,1202,188,-0.983642578125,0.0960693359375,-0.3035888671875,31.52439024390244,36.646341463414636,5.731707317073171,1565282311181
-8030,395,-2906,858,1261,309,-0.980224609375,0.0482177734375,-0.354736328125,26.158536585365855,38.44512195121951,9.420731707317074,1565282311187
-8011,578,-2723,793,1267,-11,-0.9779052734375,0.070556640625,-0.3323974609375,24.176829268292686,38.62804878048781,-0.3353658536585366,1565282311268
-8035,358,-3315,249,1255,-298,-0.9808349609375,0.043701171875,-0.4046630859375,7.591463414634147,38.26219512195122,-9.085365853658537,1565282311272
-8034,351,-3619,195,1237,0,-0.980712890625,0.0428466796875,-0.4417724609375,5.945121951219512,37.713414634146346,0.0,1565282311277
-8006,342,-3675,143,1212,55,-0.977294921875,0.041748046875,-0.4486083984375,4.359756097560976,36.951219512195124,1.676829268292683,1565282311281
-7941,324,-3527,345,1195,-95,-0.9693603515625,0.03955078125,-0.4305419921875,10.51829268292683,36.4329268292683,-2.8963414634146343,1565282311286
-7662,314,-3562,-34,1192,-58,-0.935302734375,0.038330078125,-0.434814453125,-1.0365853658536586,36.34146341463415,-1.7682926829268295,1565282311374
-7743,-30,-3944,-186,1165,134,-0.9451904296875,-0.003662109375,-0.4814453125,-5.670731707317073,35.518292682926834,4.085365853658537,1565282311379
-7377,-36,-3962,-571,1395,155,-0.9005126953125,-0.00439453125,-0.483642578125,-17.408536585365855,42.53048780487805,4.725609756097561,1565282311388
-7323,-43,-3723,-396,1393,146,-0.8939208984375,-0.0052490234375,-0.4544677734375,-12.073170731707318,42.46951219512196,4.451219512195122,1565282311396
-7527,-57,-3735,-484,1396,129,-0.9188232421875,-0.0069580078125,-0.4559326171875,-14.756097560975611,42.5609756097561,3.932926829268293,1565282311403
-7425,-86,-3764,-671,1156,342,-0.9063720703125,-0.010498046875,-0.45947265625,-20.457317073170735,35.243902439024396,10.426829268292684,1565282311478
-7155,-328,-4193,-1625,1275,37,-0.8734130859375,-0.0400390625,-0.5118408203125,-49.54268292682927,38.8719512195122,1.128048780487805,1565282311483
-7167,-341,-3972,-1496,1215,13,-0.8748779296875,-0.0416259765625,-0.48486328125,-45.60975609756098,37.04268292682927,0.39634146341463417,1565282311488
-7168,-346,-4021,-1806,1169,-265,-0.875,-0.042236328125,-0.4908447265625,-55.0609756097561,35.640243902439025,-8.079268292682928,1565282311495
-7426,-343,-4073,-1862,1382,-281,-0.906494140625,-0.0418701171875,-0.4971923828125,-56.768292682926834,42.13414634146342,-8.567073170731708,1565282311500
-7454,-346,-4421,-1668,1345,-306,-0.909912109375,-0.042236328125,-0.5396728515625,-50.85365853658537,41.00609756097561,-9.329268292682928,1565282311584
-7318,-152,-4332,-2363,652,10,-0.893310546875,-0.0185546875,-0.52880859375,-72.04268292682927,19.878048780487806,0.30487804878048785,1565282311591
-7305,-153,-4344,-2388,822,3,-0.8917236328125,-0.0186767578125,-0.5302734375,-72.8048780487805,25.0609756097561,0.09146341463414635,1565282311598
-7551,-157,-4629,-2409,403,-296,-0.9217529296875,-0.0191650390625,-0.5650634765625,-73.44512195121952,12.286585365853659,-9.02439024390244,1565282311609
-7302,-159,-4635,-2185,576,-330,-0.891357421875,-0.0194091796875,-0.5657958984375,-66.6158536585366,17.5609756097561,-10.060975609756099,1565282311626
-7311,-158,-4642,-2194,235,-367,-0.8924560546875,-0.019287109375,-0.566650390625,-66.89024390243902,7.164634146341464,-11.189024390243903,1565282311688
-7603,-136,-4311,-2295,-254,-823,-0.9281005859375,-0.0166015625,-0.5262451171875,-69.96951219512195,-7.743902439024391,-25.09146341463415,1565282311693
-7607,-358,-4282,-2289,-629,-879,-0.9285888671875,-0.043701171875,-0.522705078125,-69.78658536585367,-19.176829268292686,-26.79878048780488,1565282311697
-7565,1,-4238,-2278,-498,-685,-0.9234619140625,1.220703125E-4,-0.517333984375,-69.45121951219512,-15.182926829268293,-20.884146341463417,1565282311701
-7792,57,-4237,-2275,-730,-1086,-0.951171875,0.0069580078125,-0.5172119140625,-69.35975609756098,-22.25609756097561,-33.109756097560975,1565282311705
-7793,92,-4298,-2302,-1039,-930,-0.9512939453125,0.01123046875,-0.524658203125,-70.1829268292683,-31.676829268292686,-28.353658536585368,1565282311793
-8805,-68,-4099,-3142,-1301,-1325,-1.0748291015625,-0.00830078125,-0.5003662109375,-95.79268292682927,-39.66463414634147,-40.396341463414636,1565282311797
-8721,-1,-3730,-2978,-1615,-1230,-1.0645751953125,-1.220703125E-4,-0.455322265625,-90.79268292682927,-49.237804878048784,-37.5,1565282311802
-8742,276,-3842,-3032,-1606,-1605,-1.067138671875,0.03369140625,-0.468994140625,-92.43902439024392,-48.963414634146346,-48.9329268292683,1565282311806
-8592,276,-3692,-3046,-1577,-1650,-1.048828125,0.03369140625,-0.45068359375,-92.8658536585366,-48.07926829268293,-50.304878048780495,1565282311818
-8859,297,-3399,-3020,-1626,-1623,-1.0814208984375,0.0362548828125,-0.4149169921875,-92.07317073170732,-49.57317073170732,-49.48170731707317,1565282311898
-7933,882,-2200,-2877,-2419,-505,-0.9683837890625,0.107666015625,-0.2685546875,-87.71341463414635,-73.75,-15.396341463414636,1565282311903
-7947,675,-2380,-2864,-2410,-505,-0.9700927734375,0.0823974609375,-0.29052734375,-87.31707317073172,-73.47560975609757,-15.396341463414636,1565282311907
-7745,723,-2321,-2869,-2332,-818,-0.9454345703125,0.0882568359375,-0.2833251953125,-87.46951219512196,-71.09756097560977,-24.939024390243905,1565282311912
-7350,767,-2020,-2876,-1948,-653,-0.897216796875,0.0936279296875,-0.24658203125,-87.6829268292683,-59.39024390243903,-19.908536585365855,1565282311917
-7547,1124,-2156,-2888,-1778,-832,-0.9212646484375,0.13720703125,-0.26318359375,-88.04878048780489,-54.207317073170735,-25.365853658536587,1565282312004
-7904,960,-1828,-3041,-869,-464,-0.96484375,0.1171875,-0.22314453125,-92.71341463414635,-26.493902439024392,-14.146341463414636,1565282312012
-7929,908,-1516,-3337,-832,-612,-0.9678955078125,0.11083984375,-0.18505859375,-101.73780487804879,-25.365853658536587,-18.658536585365855,1565282312019
-7914,1065,-1432,-3350,-815,-528,-0.966064453125,0.1300048828125,-0.1748046875,-102.13414634146342,-24.84756097560976,-16.097560975609756,1565282312031
-7845,1024,-1656,-3065,-507,-225,-0.9576416015625,0.125,-0.2021484375,-93.44512195121952,-15.457317073170733,-6.859756097560976,1565282312039
-7818,735,-1623,-3039,-465,-519,-0.954345703125,0.0897216796875,-0.1981201171875,-92.65243902439025,-14.176829268292684,-15.823170731707318,1565282312109
-7939,658,-1610,-3181,-371,-1374,-0.9691162109375,0.080322265625,-0.196533203125,-96.98170731707317,-11.310975609756099,-41.890243902439025,1565282312116
-7968,885,-1623,-3193,-317,-1212,-0.97265625,0.1080322265625,-0.1981201171875,-97.34756097560977,-9.664634146341465,-36.951219512195124,1565282312123
-7986,808,-1636,-2946,-272,-1632,-0.974853515625,0.0986328125,-0.19970703125,-89.81707317073172,-8.292682926829269,-49.75609756097561,1565282312131
-7960,503,-1656,-3195,-273,-1464,-0.9716796875,0.0614013671875,-0.2021484375,-97.40853658536587,-8.323170731707318,-44.63414634146342,1565282312135
-7671,449,-1435,-3187,-273,-1824,-0.9364013671875,0.0548095703125,-0.1751708984375,-97.16463414634147,-8.323170731707318,-55.60975609756098,1565282312214
-8006,-60,-1530,-2866,-80,-2866,-0.977294921875,-0.00732421875,-0.186767578125,-87.37804878048782,-2.439024390243903,-87.37804878048782,1565282312221
-8036,-126,-1798,-2556,-64,-2719,-0.98095703125,-0.015380859375,-0.219482421875,-77.92682926829269,-1.9512195121951221,-82.89634146341464,1565282312234
-8051,4,-1831,-2503,-60,-2812,-0.9827880859375,4.8828125E-4,-0.2235107421875,-76.3109756097561,-1.829268292682927,-85.73170731707317,1565282312243
-8040,-330,-1842,-2677,-62,-2960,-0.9814453125,-0.040283203125,-0.224853515625,-81.6158536585366,-1.8902439024390245,-90.2439024390244,1565282312249
-8025,-155,-1843,-2647,-54,-3022,-0.9796142578125,-0.0189208984375,-0.2249755859375,-80.70121951219512,-1.6463414634146343,-92.13414634146342,1565282312318
-7602,-1113,-1877,-2331,217,-3673,-0.927978515625,-0.1358642578125,-0.2291259765625,-71.06707317073172,6.615853658536586,-111.98170731707319,1565282312322
-7577,-940,-1891,-2015,520,-3488,-0.9249267578125,-0.11474609375,-0.2308349609375,-61.4329268292683,15.853658536585368,-106.34146341463416,1565282312326
-7798,-1014,-1908,-1948,569,-3554,-0.951904296875,-0.123779296875,-0.23291015625,-59.39024390243903,17.347560975609756,-108.35365853658537,1565282312332
-7751,-1344,-1703,-2133,612,-3869,-0.9461669921875,-0.1640625,-0.2078857421875,-65.03048780487805,18.658536585365855,-117.95731707317074,1565282312338
-7393,-1244,-1743,-1757,457,-3722,-0.9024658203125,-0.15185546875,-0.2127685546875,-53.56707317073171,13.932926829268293,-113.47560975609757,1565282312423
-7459,-2129,-2026,-1506,1129,-4390,-0.9105224609375,-0.2598876953125,-0.247314453125,-45.91463414634147,34.420731707317074,-133.84146341463415,1565282312428
-7476,-2371,-2349,-1495,942,-4460,-0.91259765625,-0.2894287109375,-0.2867431640625,-45.57926829268293,28.719512195121954,-135.97560975609758,1565282312433
-7478,-2215,-2388,-1416,1012,-4312,-0.912841796875,-0.2703857421875,-0.29150390625,-43.170731707317074,30.853658536585368,-131.46341463414635,1565282312439
-7463,-2304,-2181,-1620,1012,-4614,-0.9110107421875,-0.28125,-0.2662353515625,-49.39024390243903,30.853658536585368,-140.6707317073171,1565282312444
-7445,-2684,-2271,-1567,1001,-4661,-0.9088134765625,-0.32763671875,-0.2772216796875,-47.774390243902445,30.51829268292683,-142.10365853658539,1565282312528
-7080,-3133,-2486,-1311,1039,-4318,-0.8642578125,-0.3824462890625,-0.303466796875,-39.96951219512196,31.676829268292686,-131.64634146341464,1565282312531
-7044,-3178,-2558,-978,852,-4452,-0.85986328125,-0.387939453125,-0.312255859375,-29.81707317073171,25.975609756097562,-135.7317073170732,1565282312535
-7272,-2950,-2851,-953,499,-4377,-0.8876953125,-0.360107421875,-0.3480224609375,-29.05487804878049,15.213414634146343,-133.44512195121953,1565282312539
-7230,-2997,-2890,-936,400,-4034,-0.882568359375,-0.3658447265625,-0.352783203125,-28.53658536585366,12.195121951219512,-122.98780487804879,1565282312543
-7194,-3009,-2908,-905,167,-3806,-0.878173828125,-0.3673095703125,-0.35498046875,-27.59146341463415,5.091463414634147,-116.03658536585367,1565282312634
-8384,-4672,-2791,-1838,499,-3594,-1.0234375,-0.5703125,-0.3406982421875,-56.03658536585366,15.213414634146343,-109.57317073170732,1565282312638
-8120,-4297,-3133,-1304,-185,-2905,-0.9912109375,-0.5245361328125,-0.3824462890625,-39.75609756097561,-5.640243902439025,-88.56707317073172,1565282312645
-7646,-4395,-3007,-1059,-888,-2613,-0.933349609375,-0.5364990234375,-0.3670654296875,-32.28658536585366,-27.073170731707318,-79.66463414634147,1565282312656
-7472,-4031,-3356,-720,-1072,-2611,-0.912109375,-0.4920654296875,-0.40966796875,-21.951219512195124,-32.6829268292683,-79.60365853658537,1565282312663
-6857,-4029,-3332,-752,-1042,-2497,-0.8370361328125,-0.4918212890625,-0.40673828125,-22.926829268292686,-31.76829268292683,-76.12804878048782,1565282312739
-6271,-4222,-3189,-624,-724,-3371,-0.7655029296875,-0.515380859375,-0.3892822265625,-19.02439024390244,-22.073170731707318,-102.77439024390245,1565282312742
-6198,-4105,-2980,-580,-690,-3409,-0.756591796875,-0.5010986328125,-0.36376953125,-17.682926829268293,-21.03658536585366,-103.9329268292683,1565282312750
-5790,-3822,-3035,-577,-867,-3371,-0.706787109375,-0.466552734375,-0.3704833984375,-17.59146341463415,-26.432926829268293,-102.77439024390245,1565282312754
-6002,-4104,-3353,-632,-785,-3068,-0.732666015625,-0.5009765625,-0.4093017578125,-19.26829268292683,-23.932926829268293,-93.53658536585367,1565282312759
-5763,-4179,-3401,-460,-408,-3015,-0.7034912109375,-0.5101318359375,-0.4151611328125,-14.02439024390244,-12.439024390243903,-91.92073170731707,1565282312844
-6137,-4596,-3570,-711,-328,-2645,-0.7491455078125,-0.56103515625,-0.435791015625,-21.676829268292686,-10.0,-80.64024390243902,1565282312858
-6522,-4909,-3856,-750,16,-2615,-0.796142578125,-0.5992431640625,-0.470703125,-22.865853658536587,0.48780487804878053,-79.72560975609757,1565282312868
-6657,-4948,-3867,-1029,64,-2283,-0.8126220703125,-0.60400390625,-0.4720458984375,-31.371951219512198,1.9512195121951221,-69.60365853658537,1565282312875
-6565,-4951,-3880,-1041,53,-2420,-0.8013916015625,-0.6043701171875,-0.4736328125,-31.737804878048784,1.6158536585365855,-73.78048780487805,1565282312881
-6590,-4932,-3895,-1073,-347,-2156,-0.804443359375,-0.60205078125,-0.4754638671875,-32.713414634146346,-10.579268292682928,-65.73170731707317,1565282312948
-6551,-4280,-3495,-1184,-1302,-1083,-0.7996826171875,-0.5224609375,-0.4266357421875,-36.09756097560976,-39.69512195121951,-33.018292682926834,1565282312952
-6780,-4254,-3480,-1261,-1407,-750,-0.82763671875,-0.519287109375,-0.4248046875,-38.44512195121951,-42.896341463414636,-22.865853658536587,1565282312957
-6753,-4230,-3462,-1594,-1249,-683,-0.8243408203125,-0.516357421875,-0.422607421875,-48.59756097560976,-38.07926829268293,-20.823170731707318,1565282312962
-6711,-4448,-3683,-1413,-1435,-838,-0.8192138671875,-0.54296875,-0.4495849609375,-43.07926829268293,-43.75000000000001,-25.54878048780488,1565282312970
-6701,-4438,-3664,-1814,-1526,-803,-0.8179931640625,-0.541748046875,-0.447265625,-55.304878048780495,-46.524390243902445,-24.481707317073173,1565282313053
-6412,-4276,-3631,-2028,-2356,-437,-0.78271484375,-0.52197265625,-0.4432373046875,-61.82926829268293,-71.82926829268294,-13.323170731707318,1565282313059
-6103,-4254,-3639,-2364,-2451,-471,-0.7449951171875,-0.519287109375,-0.4442138671875,-72.07317073170732,-74.72560975609757,-14.359756097560977,1565282313065
-6073,-4233,-3648,-2412,-2526,-772,-0.7413330078125,-0.5167236328125,-0.4453125,-73.53658536585367,-77.01219512195122,-23.53658536585366,1565282313074
-6069,-4468,-3646,-2212,-2836,-822,-0.7408447265625,-0.54541015625,-0.445068359375,-67.43902439024392,-86.46341463414635,-25.0609756097561,1565282313080
-6059,-4395,-3631,-2256,-2899,-837,-0.7396240234375,-0.5364990234375,-0.4432373046875,-68.78048780487805,-88.38414634146342,-25.51829268292683,1565282313158
-6223,-4372,-3677,-2851,-3397,-547,-0.7596435546875,-0.53369140625,-0.4488525390625,-86.92073170731707,-103.56707317073172,-16.676829268292686,1565282313163
-6215,-4372,-3700,-2875,-3252,-171,-0.7586669921875,-0.53369140625,-0.45166015625,-87.65243902439025,-99.14634146341464,-5.213414634146342,1565282313167
-6200,-4361,-3476,-2922,-3288,-369,-0.7568359375,-0.5323486328125,-0.42431640625,-89.08536585365854,-100.2439024390244,-11.250000000000002,1565282313172
-6187,-4088,-3502,-2697,-3302,-308,-0.7552490234375,-0.4990234375,-0.427490234375,-82.22560975609757,-100.67073170731709,-9.390243902439025,1565282313177
-6180,-4075,-3535,-2745,-3295,7,-0.75439453125,-0.4974365234375,-0.4315185546875,-83.68902439024392,-100.45731707317074,0.2134146341463415,1565282313264
-6359,-4842,-3862,-3602,-2730,12,-0.7762451171875,-0.591064453125,-0.471435546875,-109.81707317073172,-83.23170731707317,0.3658536585365854,1565282313268
-7358,-5857,-3640,-3810,-2039,-395,-0.898193359375,-0.7149658203125,-0.4443359375,-116.15853658536587,-62.16463414634147,-12.042682926829269,1565282313274
-7985,-6262,-3211,-3921,-2378,-413,-0.9747314453125,-0.764404296875,-0.3919677734375,-119.54268292682927,-72.5,-12.591463414634147,1565282313280
-7614,-6004,-3445,-3392,-2935,-378,-0.929443359375,-0.73291015625,-0.4205322265625,-103.41463414634147,-89.48170731707317,-11.52439024390244,1565282313287
-7133,-5312,-3347,-2879,-3288,-57,-0.8707275390625,-0.6484375,-0.4085693359375,-87.77439024390245,-100.2439024390244,-1.7378048780487807,1565282313368
-6044,-4648,-2863,-2754,-3221,-608,-0.73779296875,-0.5673828125,-0.3494873046875,-83.96341463414635,-98.20121951219512,-18.53658536585366,1565282313372
-6226,-4612,-2536,-3099,-3210,-424,-0.760009765625,-0.56298828125,-0.3095703125,-94.48170731707317,-97.8658536585366,-12.926829268292684,1565282313378
-6055,-4330,-2602,-2966,-3349,-638,-0.7391357421875,-0.528564453125,-0.317626953125,-90.42682926829269,-102.10365853658537,-19.451219512195124,1565282313387
-6084,-4302,-2256,-2975,-3350,-216,-0.74267578125,-0.525146484375,-0.275390625,-90.70121951219512,-102.13414634146342,-6.585365853658537,1565282313393
-6086,-4285,-2432,-2987,-3373,-289,-0.742919921875,-0.5230712890625,-0.296875,-91.06707317073172,-102.83536585365854,-8.810975609756099,1565282313473
-6385,-4886,-1466,-3014,-3642,1384,-0.7794189453125,-0.596435546875,-0.178955078125,-91.89024390243904,-111.03658536585367,42.19512195121951,1565282313477
-6666,-4594,-1653,-3191,-3699,1556,-0.813720703125,-0.560791015625,-0.2017822265625,-97.28658536585367,-112.77439024390245,47.43902439024391,1565282313483
-6697,-4544,-1569,-3119,-3480,1485,-0.8175048828125,-0.5546875,-0.1915283203125,-95.09146341463415,-106.09756097560977,45.274390243902445,1565282313493
-6778,-4665,-1360,-2788,-3498,1693,-0.827392578125,-0.5694580078125,-0.166015625,-85.00000000000001,-106.64634146341464,51.61585365853659,1565282313497
-6569,-4315,-985,-2858,-3478,2182,-0.8018798828125,-0.5267333984375,-0.1202392578125,-87.13414634146342,-106.03658536585367,66.52439024390245,1565282313578
-6866,-3628,-205,-2004,-3370,4949,-0.838134765625,-0.44287109375,-0.0250244140625,-61.09756097560976,-102.7439024390244,150.88414634146343,1565282313582
-6883,-3278,-171,-2306,-2996,4779,-0.8402099609375,-0.400146484375,-0.0208740234375,-70.3048780487805,-91.34146341463415,145.70121951219514,1565282313587
-7170,-3316,-377,-2361,-3111,4826,-0.875244140625,-0.40478515625,-0.0460205078125,-71.98170731707317,-94.84756097560977,147.13414634146343,1565282313592
-7198,-3200,-368,-2224,-2818,4810,-0.878662109375,-0.390625,-0.044921875,-67.8048780487805,-85.91463414634147,146.64634146341464,1565282313596
-7193,-3084,-365,-2284,-2665,4755,-0.8780517578125,-0.37646484375,-0.0445556640625,-69.63414634146342,-81.25,144.96951219512195,1565282313683
-7082,-2278,-638,-2737,-1594,3825,-0.864501953125,-0.278076171875,-0.077880859375,-83.44512195121952,-48.59756097560976,116.6158536585366,1565282313687
-7105,-2235,-427,-2792,-1385,3499,-0.8673095703125,-0.2728271484375,-0.0521240234375,-85.1219512195122,-42.22560975609756,106.67682926829269,1565282313691
-7115,-2202,-474,-2802,-1302,3603,-0.8685302734375,-0.268798828125,-0.057861328125,-85.42682926829269,-39.69512195121951,109.84756097560977,1565282313696
-7120,-2424,-780,-2804,-965,3450,-0.869140625,-0.2958984375,-0.09521484375,-85.48780487804879,-29.420731707317074,105.1829268292683,1565282313705
-7153,-2324,-884,-2799,-1135,3046,-0.8731689453125,-0.28369140625,-0.10791015625,-85.33536585365854,-34.60365853658537,92.8658536585366,1565282313789
-7411,-1748,-723,-2938,-242,2377,-0.9046630859375,-0.21337890625,-0.0882568359375,-89.57317073170732,-7.378048780487806,72.46951219512195,1565282313793
-7424,-1701,-716,-2852,-205,1921,-0.90625,-0.2076416015625,-0.08740234375,-86.95121951219512,-6.250000000000001,58.56707317073171,1565282313800
-7688,-1679,-719,-2555,-184,2078,-0.9384765625,-0.2049560546875,-0.0877685546875,-77.89634146341464,-5.609756097560976,63.35365853658537,1565282313816
-7704,-1913,-724,-2518,-154,1719,-0.9404296875,-0.2335205078125,-0.08837890625,-76.76829268292684,-4.695121951219512,52.40853658536586,1565282313822
-7786,-1880,-712,-2457,-344,1510,-0.950439453125,-0.2294921875,-0.0869140625,-74.90853658536587,-10.487804878048781,46.03658536585366,1565282313893
-7596,-1834,-720,-2594,-317,760,-0.92724609375,-0.223876953125,-0.087890625,-79.08536585365854,-9.664634146341465,23.170731707317074,1565282313898
-7568,-1889,-717,-2601,-301,782,-0.923828125,-0.2305908203125,-0.0875244140625,-79.29878048780489,-9.176829268292684,23.84146341463415,1565282313902
-7556,-1908,-727,-2604,-287,404,-0.92236328125,-0.23291015625,-0.0887451171875,-79.39024390243902,-8.75,12.317073170731708,1565282313909
-7554,-1918,-740,-2595,-262,537,-0.922119140625,-0.234130859375,-0.09033203125,-79.1158536585366,-7.987804878048781,16.371951219512198,1565282313913
-7808,-1915,-761,-2584,25,159,-0.953125,-0.2337646484375,-0.0928955078125,-78.78048780487805,0.7621951219512195,4.847560975609756,1565282313998
-7854,-1687,-1354,-2436,203,-544,-0.958740234375,-0.2059326171875,-0.165283203125,-74.26829268292684,6.189024390243903,-16.585365853658537,1565282314005
-7924,-1714,-1223,-2474,518,-582,-0.96728515625,-0.209228515625,-0.1492919921875,-75.42682926829269,15.79268292682927,-17.743902439024392,1565282314011
-8152,-2080,-1270,-2852,428,-398,-0.9951171875,-0.25390625,-0.155029296875,-86.95121951219512,13.04878048780488,-12.134146341463415,1565282314017
-8529,-2110,-1554,-2894,476,-414,-1.0411376953125,-0.257568359375,-0.189697265625,-88.23170731707317,14.51219512195122,-12.621951219512196,1565282314029
-8568,-2091,-1589,-2891,443,-391,-1.0458984375,-0.2552490234375,-0.1939697265625,-88.14024390243904,13.506097560975611,-11.920731707317074,1565282314104
-7777,-1504,-2061,-2690,211,-681,-0.9493408203125,-0.18359375,-0.2515869140625,-82.01219512195122,6.432926829268293,-20.762195121951223,1565282314111
-7407,-1444,-2133,-2913,187,-733,-0.9041748046875,-0.17626953125,-0.2603759765625,-88.8109756097561,5.701219512195123,-22.34756097560976,1565282314209
-7299,-1644,-1948,-2895,176,-1054,-0.8909912109375,-0.20068359375,-0.23779296875,-88.26219512195122,5.365853658536586,-32.13414634146342,1565282314215
-7131,-1579,-2357,-2889,199,-907,-0.8704833984375,-0.1927490234375,-0.2877197265625,-88.07926829268294,6.067073170731708,-27.652439024390247,1565282314222
-7092,-1583,-2421,-2902,240,-951,-0.86572265625,-0.1932373046875,-0.2955322265625,-88.47560975609757,7.317073170731708,-28.993902439024392,1565282314232
-7742,-1769,-2849,-2839,482,-971,-0.945068359375,-0.2159423828125,-0.3477783203125,-86.5548780487805,14.695121951219514,-29.603658536585368,1565282314313
-7579,-2102,-2905,-2466,463,-1151,-0.9251708984375,-0.256591796875,-0.3546142578125,-75.1829268292683,14.115853658536587,-35.09146341463415,1565282314317
-7616,-2125,-2694,-2663,463,-1126,-0.9296875,-0.2593994140625,-0.328857421875,-81.18902439024392,14.115853658536587,-34.32926829268293,1565282314418
-7952,-2145,-2794,-2607,464,-1100,-0.970703125,-0.2618408203125,-0.341064453125,-79.48170731707317,14.146341463414636,-33.53658536585366,1565282314423
-7996,-2157,-3084,-2255,475,-1037,-0.97607421875,-0.2633056640625,-0.37646484375,-68.75,14.481707317073171,-31.615853658536587,1565282314429
-8200,-1952,-3029,-2326,246,-849,-1.0009765625,-0.23828125,-0.3697509765625,-70.91463414634147,7.500000000000001,-25.884146341463417,1565282314436
-7914,-1935,-3068,-2308,178,-811,-0.966064453125,-0.2362060546875,-0.37451171875,-70.3658536585366,5.426829268292684,-24.725609756097562,1565282314445
-8005,-1679,-3339,-2438,-354,-65,-0.9771728515625,-0.2049560546875,-0.4075927734375,-74.32926829268294,-10.792682926829269,-1.981707317073171,1565282314523
-7983,-1870,-3072,-2682,-172,268,-0.9744873046875,-0.228271484375,-0.375,-81.76829268292684,-5.2439024390243905,8.170731707317074,1565282314528
-7964,-1805,-3060,-2685,-240,333,-0.97216796875,-0.2203369140625,-0.37353515625,-81.85975609756099,-7.317073170731708,10.152439024390246,1565282314533
-7953,-1487,-3057,-2444,-551,135,-0.9708251953125,-0.1815185546875,-0.3731689453125,-74.51219512195122,-16.79878048780488,4.115853658536586,1565282314538
-7728,-1222,-3422,-3054,-689,180,-0.943359375,-0.149169921875,-0.417724609375,-93.10975609756099,-21.00609756097561,5.487804878048781,1565282314545
-7692,-1202,-3213,-3403,-736,345,-0.93896484375,-0.146728515625,-0.3922119140625,-103.75000000000001,-22.439024390243905,10.51829268292683,1565282314628
-7420,-1185,-3236,-3590,-764,301,-0.90576171875,-0.1446533203125,-0.39501953125,-109.45121951219514,-23.29268292682927,9.176829268292684,1565282314633
-7390,-1001,-3870,-4344,-1059,-89,-0.902099609375,-0.1221923828125,-0.472412109375,-132.4390243902439,-32.28658536585366,-2.713414634146342,1565282314639
-7749,-1333,-3920,-4571,-1074,-84,-0.9459228515625,-0.1627197265625,-0.478515625,-139.359756097561,-32.743902439024396,-2.5609756097560976,1565282314645
-7767,-1373,-3941,-4919,-1113,-89,-0.9481201171875,-0.1676025390625,-0.4810791015625,-149.96951219512195,-33.9329268292683,-2.713414634146342,1565282314650
-7774,-1160,-3726,-4749,-906,-105,-0.948974609375,-0.1416015625,-0.454833984375,-144.78658536585368,-27.621951219512198,-3.2012195121951224,1565282314733
-7561,-1165,-3817,-5401,-1239,-155,-0.9229736328125,-0.1422119140625,-0.4659423828125,-164.66463414634148,-37.774390243902445,-4.725609756097561,1565282314737
-7643,-1177,-3795,-5448,-1272,-159,-0.9329833984375,-0.1436767578125,-0.4632568359375,-166.09756097560978,-38.78048780487805,-4.847560975609756,1565282314742
-7946,-1196,-3775,-5293,-1596,-159,-0.969970703125,-0.14599609375,-0.4608154296875,-161.3719512195122,-48.65853658536586,-4.847560975609756,1565282314746
-7986,-1237,-3762,-5344,-1644,-165,-0.974853515625,-0.1510009765625,-0.459228515625,-162.9268292682927,-50.1219512195122,-5.0304878048780495,1565282314752
-8034,-1555,-3750,-5654,-1425,-175,-0.980712890625,-0.1898193359375,-0.457763671875,-172.37804878048783,-43.44512195121952,-5.335365853658537,1565282314838
-7654,-1784,-3449,-5254,-2387,-599,-0.934326171875,-0.2177734375,-0.4210205078125,-160.1829268292683,-72.77439024390245,-18.262195121951223,1565282314842
-7624,-2065,-3200,-5494,-2341,-460,-0.9306640625,-0.2520751953125,-0.390625,-167.50000000000003,-71.3719512195122,-14.02439024390244,1565282314846
-7789,-2055,-3098,-5040,-2376,-486,-0.9508056640625,-0.2508544921875,-0.378173828125,-153.65853658536588,-72.43902439024392,-14.817073170731708,1565282314851
-7716,-1769,-2768,-5173,-2410,-488,-0.94189453125,-0.2159423828125,-0.337890625,-157.71341463414635,-73.47560975609757,-14.878048780487806,1565282314855
-7414,-1748,-2937,-4820,-2419,-779,-0.905029296875,-0.21337890625,-0.3585205078125,-146.95121951219514,-73.75,-23.750000000000004,1565282314944
-7692,-1673,-2151,-4255,-2375,-521,-0.93896484375,-0.2042236328125,-0.2625732421875,-129.72560975609758,-72.40853658536587,-15.884146341463415,1565282314949
-7733,-1887,-1792,-4437,-2364,-195,-0.9439697265625,-0.2303466796875,-0.21875,-135.27439024390245,-72.07317073170732,-5.945121951219512,1565282314962
-7767,-1838,-1698,-4364,-2365,-373,-0.9481201171875,-0.224365234375,-0.207275390625,-133.0487804878049,-72.10365853658537,-11.371951219512196,1565282314973
-7792,-1519,-1864,-4039,-2369,-294,-0.951171875,-0.1854248046875,-0.2275390625,-123.14024390243904,-72.22560975609757,-8.963414634146343,1565282314979
-7594,-1644,-1424,-4204,-2357,114,-0.927001953125,-0.20068359375,-0.173828125,-128.1707317073171,-71.85975609756098,3.4756097560975614,1565282315049
-7966,-667,-1057,-4010,-2014,413,-0.972412109375,-0.0814208984375,-0.1290283203125,-122.25609756097562,-61.40243902439025,12.591463414634147,1565282315052
-7972,-832,-1025,-4062,-1993,476,-0.97314453125,-0.1015625,-0.1251220703125,-123.84146341463416,-60.76219512195122,14.51219512195122,1565282315059
-7972,-497,-747,-4361,-1959,780,-0.97314453125,-0.0606689453125,-0.0911865234375,-132.95731707317074,-59.72560975609757,23.78048780487805,1565282315068
-7984,-443,-716,-4423,-2170,814,-0.974609375,-0.0540771484375,-0.08740234375,-134.84756097560978,-66.15853658536587,24.81707317073171,1565282315077
-8020,-635,-671,-4238,-2054,873,-0.97900390625,-0.0775146484375,-0.0819091796875,-129.20731707317074,-62.6219512195122,26.615853658536587,1565282315153
-8262,-370,-811,-4530,-1608,870,-1.008544921875,-0.045166015625,-0.0989990234375,-138.109756097561,-49.024390243902445,26.52439024390244,1565282315157
-8252,-313,-811,-4527,-1587,850,-1.00732421875,-0.0382080078125,-0.0989990234375,-138.01829268292684,-48.38414634146342,25.914634146341466,1565282315161
-8253,29,-832,-4533,-1557,812,-1.0074462890625,0.0035400390625,-0.1015625,-138.20121951219514,-47.46951219512196,24.75609756097561,1565282315165
-8279,46,-821,-4582,-1204,448,-1.0106201171875,0.005615234375,-0.1002197265625,-139.69512195121953,-36.707317073170735,13.658536585365855,1565282315170
-8306,47,-813,-4606,-1169,398,-1.013916015625,0.0057373046875,-0.0992431640625,-140.4268292682927,-35.640243902439025,12.134146341463415,1565282315258
-8315,-131,-457,-4639,-1264,264,-1.0150146484375,-0.0159912109375,-0.0557861328125,-141.4329268292683,-38.53658536585366,8.048780487804878,1565282315262
-8252,-158,-446,-4343,-1554,-47,-1.00732421875,-0.019287109375,-0.054443359375,-132.40853658536585,-47.37804878048781,-1.4329268292682928,1565282315266
-7857,-235,-409,-4289,-1585,52,-0.9591064453125,-0.0286865234375,-0.0499267578125,-130.76219512195124,-48.32317073170732,1.5853658536585367,1565282315274
-8061,-530,-638,-4258,-1578,-297,-0.9840087890625,-0.064697265625,-0.077880859375,-129.81707317073173,-48.10975609756098,-9.05487804878049,1565282315282
-8014,-574,-601,-4472,-1567,-130,-0.978271484375,-0.070068359375,-0.0733642578125,-136.34146341463415,-47.774390243902445,-3.963414634146342,1565282315363
-7566,-775,-220,-4133,-942,-471,-0.923583984375,-0.0946044921875,-0.02685546875,-126.00609756097562,-28.719512195121954,-14.359756097560977,1565282315366
-7560,-818,-211,-4116,-1129,-469,-0.9228515625,-0.099853515625,-0.0257568359375,-125.48780487804879,-34.420731707317074,-14.29878048780488,1565282315370
-7789,-641,-208,-3837,-1056,-453,-0.9508056640625,-0.0782470703125,-0.025390625,-116.98170731707319,-32.19512195121951,-13.810975609756099,1565282315374
-7774,-696,-198,-3787,-648,-445,-0.948974609375,-0.0849609375,-0.024169921875,-115.45731707317074,-19.75609756097561,-13.567073170731708,1565282315379
-7772,-754,-187,-3758,-822,-449,-0.94873046875,-0.092041015625,-0.0228271484375,-114.57317073170732,-25.0609756097561,-13.689024390243903,1565282315468
-7622,-967,-253,-3249,-298,-561,-0.930419921875,-0.1180419921875,-0.0308837890625,-99.0548780487805,-9.085365853658537,-17.103658536585368,1565282315472
-7643,-1000,-238,-3436,21,-549,-0.9329833984375,-0.1220703125,-0.029052734375,-104.75609756097562,0.6402439024390244,-16.73780487804878,1565282315478
-7666,-1294,-219,-3350,70,-540,-0.935791015625,-0.157958984375,-0.0267333984375,-102.13414634146342,2.1341463414634148,-16.463414634146343,1565282315482
-7673,-1324,-224,-2988,98,-532,-0.9366455078125,-0.16162109375,-0.02734375,-91.09756097560977,2.987804878048781,-16.219512195121954,1565282315487
-7647,-1343,-232,-2759,125,-529,-0.9334716796875,-0.1639404296875,-0.0283203125,-84.1158536585366,3.810975609756098,-16.128048780487806,1565282315573
-7555,-982,-544,-2258,293,-522,-0.9222412109375,-0.119873046875,-0.06640625,-68.84146341463415,8.932926829268293,-15.914634146341465,1565282315576
-7564,-967,-573,-2239,325,-515,-0.92333984375,-0.1180419921875,-0.0699462890625,-68.26219512195122,9.908536585365855,-15.701219512195124,1565282315580
-7606,-972,-587,-2236,380,-214,-0.928466796875,-0.11865234375,-0.0716552734375,-68.17073170731707,11.585365853658537,-6.52439024390244,1565282315584
-7625,-989,-595,-2240,139,-183,-0.9307861328125,-0.1207275390625,-0.0726318359375,-68.29268292682927,4.237804878048781,-5.579268292682928,1565282315589
-7639,-1002,-592,-2241,148,-152,-0.9324951171875,-0.122314453125,-0.072265625,-68.32317073170732,4.51219512195122,-4.634146341463415,1565282315679
-7801,-1298,-479,-2398,354,-333,-0.9522705078125,-0.158447265625,-0.0584716796875,-73.10975609756098,10.792682926829269,-10.152439024390246,1565282315686
-7558,-1302,-775,-2384,132,-325,-0.922607421875,-0.158935546875,-0.0946044921875,-72.6829268292683,4.024390243902439,-9.908536585365855,1565282315691
-7557,-1307,-788,-2371,135,-308,-0.9224853515625,-0.1595458984375,-0.09619140625,-72.28658536585367,4.115853658536586,-9.390243902439025,1565282315700
-7807,-1316,-812,-2354,131,-290,-0.9530029296875,-0.16064453125,-0.09912109375,-71.76829268292684,3.9939024390243905,-8.841463414634147,1565282315707
-7793,-1318,-833,-2334,383,-271,-0.9512939453125,-0.160888671875,-0.1016845703125,-71.15853658536587,11.676829268292684,-8.26219512195122,1565282315783
-8005,-1253,-703,-1717,196,56,-0.9771728515625,-0.1529541015625,-0.0858154296875,-52.34756097560976,5.975609756097562,1.707317073170732,1565282315786
-7872,-1571,-732,-1668,254,57,-0.9609375,-0.1917724609375,-0.08935546875,-50.85365853658537,7.743902439024391,1.7378048780487807,1565282315792
-8295,-1658,-755,-1883,584,70,-1.0125732421875,-0.202392578125,-0.0921630859375,-57.40853658536586,17.804878048780488,2.1341463414634148,1565282315798
-8411,-1802,-1027,-1839,392,-74,-1.0267333984375,-0.219970703125,-0.1253662109375,-56.06707317073171,11.951219512195124,-2.25609756097561,1565282315804
-8723,-1802,-1052,-1646,539,308,-1.0648193359375,-0.219970703125,-0.12841796875,-50.1829268292683,16.432926829268293,9.390243902439025,1565282315888
-7661,-1213,-1212,-1057,-94,175,-0.9351806640625,-0.1480712890625,-0.14794921875,-32.22560975609756,-2.8658536585365857,5.335365853658537,1565282315892
-7568,-1155,-1275,-1045,-59,349,-0.923828125,-0.1409912109375,-0.1556396484375,-31.85975609756098,-1.7987804878048783,10.640243902439025,1565282315897
-7782,-1361,-1630,-1054,260,282,-0.949951171875,-0.1661376953125,-0.198974609375,-32.13414634146342,7.926829268292684,8.597560975609756,1565282315901
-7720,-1292,-1425,-1092,356,-5,-0.9423828125,-0.15771484375,-0.1739501953125,-33.29268292682927,10.853658536585368,-0.15243902439024393,1565282315909
-7415,-1010,-1491,-1119,129,258,-0.9051513671875,-0.123291015625,-0.1820068359375,-34.11585365853659,3.932926829268293,7.865853658536586,1565282315994
-7691,-1408,-2032,-1569,830,292,-0.9388427734375,-0.171875,-0.248046875,-47.835365853658544,25.30487804878049,8.902439024390244,1565282316004
-7756,-1193,-2358,-1611,875,308,-0.94677734375,-0.1456298828125,-0.287841796875,-49.11585365853659,26.676829268292686,9.390243902439025,1565282316018
-7566,-1232,-2428,-1642,649,336,-0.923583984375,-0.150390625,-0.29638671875,-50.0609756097561,19.78658536585366,10.24390243902439,1565282316031
-7976,-1558,-2577,-1658,705,156,-0.9736328125,-0.190185546875,-0.3145751953125,-50.54878048780488,21.493902439024392,4.75609756097561,1565282316037
-8048,-1579,-2633,-1649,708,203,-0.982421875,-0.1927490234375,-0.3214111328125,-50.274390243902445,21.585365853658537,6.189024390243903,1565282316098
-8468,-1455,-2797,-1368,473,749,-1.03369140625,-0.1776123046875,-0.3414306640625,-41.707317073170735,14.420731707317074,22.835365853658537,1565282316104
-8496,-1423,-3085,-949,254,1130,-1.037109375,-0.1737060546875,-0.3765869140625,-28.932926829268297,7.743902439024391,34.451219512195124,1565282316111
-8505,-1642,-3112,-1133,377,995,-1.0382080078125,-0.200439453125,-0.3798828125,-34.54268292682927,11.49390243902439,30.33536585365854,1565282316119
-8496,-1599,-3130,-1066,-13,1362,-1.037109375,-0.1951904296875,-0.382080078125,-32.5,-0.39634146341463417,41.524390243902445,1565282316125
-8173,-1254,-3146,-738,118,1208,-0.9976806640625,-0.153076171875,-0.384033203125,-22.500000000000004,3.5975609756097566,36.82926829268293,1565282316204
-7631,-1038,-3164,-349,-274,1383,-0.9315185546875,-0.126708984375,-0.38623046875,-10.640243902439025,-8.353658536585366,42.16463414634147,1565282316212
-7621,-720,-3176,-295,50,1310,-0.9302978515625,-0.087890625,-0.3876953125,-8.99390243902439,1.524390243902439,39.93902439024391,1565282316219
-7631,-891,-3175,2,-35,948,-0.9315185546875,-0.1087646484375,-0.3875732421875,0.06097560975609757,-1.0670731707317074,28.902439024390247,1565282316242
-7649,-865,-3158,32,299,914,-0.9337158203125,-0.1055908203125,-0.385498046875,0.9756097560975611,9.115853658536587,27.865853658536587,1565282316250
-7672,-856,-3145,28,351,1144,-0.9365234375,-0.1044921875,-0.3839111328125,0.853658536585366,10.701219512195124,34.87804878048781,1565282316308
-7554,-872,-3085,63,-34,858,-0.922119140625,-0.1064453125,-0.3765869140625,1.9207317073170733,-1.0365853658536586,26.158536585365855,1565282316315
-7770,-865,-3078,73,-93,485,-0.948486328125,-0.1055908203125,-0.375732421875,2.225609756097561,-2.8353658536585367,14.786585365853659,1565282316321
-7746,-867,-3073,74,-114,427,-0.945556640625,-0.1058349609375,-0.3751220703125,2.25609756097561,-3.4756097560975614,13.01829268292683,1565282316326
-7733,-874,-2811,72,-119,625,-0.9439697265625,-0.106689453125,-0.3431396484375,2.1951219512195124,-3.628048780487805,19.05487804878049,1565282316336
-7746,-869,-2807,95,-95,521,-0.945556640625,-0.1060791015625,-0.3426513671875,2.8963414634146343,-2.8963414634146343,15.884146341463415,1565282316414
-7625,-781,-3138,99,-63,151,-0.9307861328125,-0.0953369140625,-0.383056640625,3.0182926829268295,-1.9207317073170733,4.603658536585367,1565282316423
-7669,-781,-3138,80,-82,377,-0.9361572265625,-0.0953369140625,-0.383056640625,2.439024390243903,-2.5,11.49390243902439,1565282316438
-7953,-776,-3136,71,-107,359,-0.9708251953125,-0.0947265625,-0.3828125,2.164634146341464,-3.26219512195122,10.945121951219512,1565282316457
-7978,-770,-3134,67,108,337,-0.973876953125,-0.093994140625,-0.382568359375,2.0426829268292686,3.2926829268292686,10.27439024390244,1565282316465
-7991,-503,-3127,68,52,319,-0.9754638671875,-0.0614013671875,-0.3817138671875,2.073170731707317,1.5853658536585367,9.725609756097562,1565282316518
-8006,-584,-3148,-259,-453,-90,-0.977294921875,-0.0712890625,-0.38427734375,-7.896341463414635,-13.810975609756099,-2.7439024390243905,1565282316523
-7996,-581,-3148,-297,-508,120,-0.97607421875,-0.0709228515625,-0.38427734375,-9.05487804878049,-15.487804878048783,3.658536585365854,1565282316528
-8057,-410,-3158,-341,-796,-273,-0.9835205078125,-0.050048828125,-0.385498046875,-10.396341463414634,-24.26829268292683,-8.323170731707318,1565282316539
-8206,-819,-3176,-220,-444,-370,-1.001708984375,-0.0999755859375,-0.3876953125,-6.707317073170732,-13.536585365853659,-11.28048780487805,1565282316544
-8572,-1089,-3123,-611,-166,-248,-1.04638671875,-0.1329345703125,-0.3812255859375,-18.628048780487806,-5.060975609756098,-7.560975609756098,1565282316624
-8780,-760,-2338,132,-1371,-298,-1.07177734375,-0.0927734375,-0.285400390625,4.024390243902439,-41.79878048780488,-9.085365853658537,1565282316631
-8977,-690,-2169,531,-1369,-280,-1.0958251953125,-0.084228515625,-0.2647705078125,16.189024390243905,-41.737804878048784,-8.536585365853659,1565282316639
-8975,-808,-2089,462,-1597,-117,-1.0955810546875,-0.0986328125,-0.2550048828125,14.085365853658537,-48.68902439024391,-3.5670731707317076,1565282316649
-8600,-244,-2088,859,-1877,278,-1.0498046875,-0.02978515625,-0.2548828125,26.189024390243905,-57.22560975609757,8.475609756097562,1565282316661
-8487,-377,-2065,641,-2056,-1,-1.0360107421875,-0.0460205078125,-0.2520751953125,19.54268292682927,-62.6829268292683,-0.030487804878048783,1565282316728
-7635,298,-1228,-82,-2089,437,-0.9320068359375,0.036376953125,-0.14990234375,-2.5,-63.68902439024391,13.323170731707318,1565282316737
-7744,317,-1180,-112,-2123,434,-0.9453125,0.0386962890625,-0.14404296875,-3.414634146341464,-64.72560975609757,13.231707317073171,1565282316743
-7508,361,-1341,124,-2123,387,-0.91650390625,0.0440673828125,-0.1636962890625,3.780487804878049,-64.72560975609757,11.79878048780488,1565282316757
-7448,131,-1303,107,-1750,221,-0.9091796875,0.0159912109375,-0.1590576171875,3.26219512195122,-53.35365853658537,6.737804878048781,1565282316762
-7425,156,-1000,102,-1910,155,-0.9063720703125,0.01904296875,-0.1220703125,3.1097560975609757,-58.23170731707317,4.725609756097561,1565282316835
-7642,191,-453,92,-1325,601,-0.932861328125,0.0233154296875,-0.0552978515625,2.804878048780488,-40.396341463414636,18.323170731707318,1565282316844
-7942,222,-640,-95,-1023,435,-0.969482421875,0.027099609375,-0.078125,-2.8963414634146343,-31.189024390243905,13.26219512195122,1565282316859
-7975,517,-515,-11,-972,782,-0.9735107421875,0.0631103515625,-0.0628662109375,-0.3353658536585366,-29.634146341463417,23.84146341463415,1565282316872
-7996,633,-205,171,-1113,712,-0.97607421875,0.0772705078125,-0.0250244140625,5.213414634146342,-33.9329268292683,21.707317073170735,1565282316879
-7992,450,-164,516,-1053,1051,-0.9755859375,0.054931640625,-0.02001953125,15.731707317073171,-32.10365853658537,32.04268292682927,1565282316938
-7569,1004,-525,770,16,1081,-0.9239501953125,0.12255859375,-0.0640869140625,23.475609756097562,0.48780487804878053,32.957317073170735,1565282316943
-7559,1021,-545,481,-117,764,-0.9227294921875,0.1246337890625,-0.0665283203125,14.664634146341465,-3.5670731707317076,23.29268292682927,1565282316952
-7558,1010,-564,443,258,690,-0.922607421875,0.123291015625,-0.06884765625,13.506097560975611,7.865853658536586,21.03658536585366,1565282316964
-7565,987,-581,411,366,865,-0.9234619140625,0.1204833984375,-0.0709228515625,12.53048780487805,11.158536585365855,26.371951219512198,1565282316970
-7574,917,-601,632,527,457,-0.924560546875,0.1119384765625,-0.0733642578125,19.26829268292683,16.06707317073171,13.932926829268293,1565282317044
-7585,649,-575,864,575,279,-0.9259033203125,0.0792236328125,-0.0701904296875,26.34146341463415,17.53048780487805,8.506097560975611,1565282317050
-7561,886,-570,679,531,-10,-0.9229736328125,0.108154296875,-0.069580078125,20.701219512195124,16.189024390243905,-0.30487804878048785,1565282317057
-7747,872,-559,756,234,-61,-0.9456787109375,0.1064453125,-0.0682373046875,23.04878048780488,7.134146341463415,-1.8597560975609757,1565282317064
-7709,878,-549,938,175,-77,-0.9410400390625,0.107177734375,-0.0670166015625,28.59756097560976,5.335365853658537,-2.347560975609756,1565282317071
-7692,894,-536,1289,174,-96,-0.93896484375,0.109130859375,-0.0654296875,39.29878048780488,5.3048780487804885,-2.9268292682926833,1565282317148
-7659,1092,-325,2041,532,-60,-0.9349365234375,0.13330078125,-0.0396728515625,62.22560975609757,16.219512195121954,-1.829268292682927,1565282317156
-7942,1131,-337,2182,539,-35,-0.969482421875,0.1380615234375,-0.0411376953125,66.52439024390245,16.432926829268293,-1.0670731707317074,1565282317164
-7950,916,-358,2299,546,-19,-0.970458984375,0.11181640625,-0.043701171875,70.09146341463415,16.646341463414636,-0.5792682926829269,1565282317176
-7676,965,-156,2657,572,-72,-0.93701171875,0.1177978515625,-0.01904296875,81.00609756097562,17.439024390243905,-2.1951219512195124,1565282317182
-7650,954,-187,2649,587,124,-0.933837890625,0.116455078125,-0.0228271484375,80.76219512195122,17.896341463414636,3.780487804878049,1565282317254
-7670,419,-554,2208,723,-666,-0.936279296875,0.0511474609375,-0.067626953125,67.31707317073172,22.04268292682927,-20.30487804878049,1565282317261
-8258,531,-600,2251,983,-1032,-1.008056640625,0.0648193359375,-0.0732421875,68.62804878048782,29.969512195121954,-31.463414634146343,1565282317360
-8371,297,-592,2196,1252,-1072,-1.0218505859375,0.0362548828125,-0.072265625,66.95121951219512,38.170731707317074,-32.6829268292683,1565282317369
-8898,99,-356,2414,1532,-1106,-1.086181640625,0.0120849609375,-0.04345703125,73.59756097560977,46.707317073170735,-33.71951219512196,1565282317379
-9515,-70,-378,2838,982,-582,-1.1614990234375,-0.008544921875,-0.046142578125,86.52439024390245,29.939024390243905,-17.743902439024392,1565282317393
-7553,871,-995,2712,454,-621,-0.9219970703125,0.1063232421875,-0.1214599609375,82.6829268292683,13.841463414634148,-18.932926829268293,1565282317406
-7722,676,-1382,2882,795,-482,-0.942626953125,0.08251953125,-0.168701171875,87.8658536585366,24.23780487804878,-14.695121951219514,1565282317464
-7705,724,-1239,2521,664,-862,-0.9405517578125,0.08837890625,-0.1512451171875,76.85975609756098,20.243902439024392,-26.28048780487805,1565282317470
-7737,1031,-1592,2680,1046,-663,-0.9444580078125,0.1258544921875,-0.1943359375,81.70731707317074,31.89024390243903,-20.213414634146343,1565282317476
-7783,1113,-1532,2589,1136,-895,-0.9500732421875,0.1358642578125,-0.18701171875,78.9329268292683,34.63414634146342,-27.28658536585366,1565282317481
-7910,825,-2271,1521,1210,-310,-0.965576171875,0.1007080078125,-0.2772216796875,46.3719512195122,36.890243902439025,-9.451219512195122,1565282317487
-8301,788,-2679,1522,1187,7,-1.0133056640625,0.09619140625,-0.3270263671875,46.40243902439025,36.18902439024391,0.2134146341463415,1565282317568
-8105,786,-2489,1530,1171,31,-0.9893798828125,0.095947265625,-0.3038330078125,46.646341463414636,35.701219512195124,0.9451219512195123,1565282317576
-8463,745,-3108,1715,756,350,-1.0330810546875,0.0909423828125,-0.37939453125,52.28658536585366,23.04878048780488,10.670731707317074,1565282317584
-8470,744,-3117,1709,748,349,-1.033935546875,0.0908203125,-0.3804931640625,52.10365853658537,22.80487804878049,10.640243902439025,1565282317594
-8464,734,-3119,1701,735,328,-1.033203125,0.089599609375,-0.3807373046875,51.85975609756098,22.408536585365855,10.0,1565282317600
-8185,722,-3123,1667,691,305,-0.9991455078125,0.088134765625,-0.3812255859375,50.82317073170732,21.06707317073171,9.298780487804878,1565282317674
-7577,600,-2739,1550,424,-637,-0.9249267578125,0.0732421875,-0.3343505859375,47.25609756097561,12.926829268292684,-19.420731707317074,1565282317681
-7803,563,-2739,1261,416,-451,-0.9525146484375,0.0687255859375,-0.3343505859375,38.44512195121951,12.682926829268293,-13.750000000000002,1565282317687
-7782,480,-2766,1223,411,-508,-0.949951171875,0.05859375,-0.337646484375,37.28658536585366,12.53048780487805,-15.487804878048783,1565282317698
-7773,174,-2781,1364,427,-833,-0.9488525390625,0.021240234375,-0.3394775390625,41.58536585365854,13.01829268292683,-25.396341463414636,1565282317704
-7788,376,-2796,1297,445,-853,-0.95068359375,0.0458984375,-0.34130859375,39.54268292682927,13.567073170731708,-26.00609756097561,1565282317778
-7598,-283,-3153,873,508,-697,-0.927490234375,-0.0345458984375,-0.3848876953125,26.615853658536587,15.487804878048783,-21.250000000000004,1565282317783
-7614,-320,-3162,505,505,-704,-0.929443359375,-0.0390625,-0.385986328125,15.396341463414636,15.396341463414636,-21.463414634146343,1565282317790
-7625,-353,-3187,460,493,-705,-0.9307861328125,-0.0430908203125,-0.3890380859375,14.02439024390244,15.03048780487805,-21.493902439024392,1565282317796
-7629,-143,-2981,421,475,-701,-0.9312744140625,-0.0174560546875,-0.3638916015625,12.835365853658537,14.481707317073171,-21.371951219512198,1565282317802
-7617,-153,-3012,597,448,-677,-0.9298095703125,-0.0186767578125,-0.36767578125,18.201219512195124,13.658536585365855,-20.640243902439025,1565282317884
-7665,-584,-3405,-83,395,-400,-0.9356689453125,-0.0712890625,-0.4156494140625,-2.530487804878049,12.042682926829269,-12.195121951219512,1565282317892
-7662,-591,-3414,-117,625,-638,-0.935302734375,-0.0721435546875,-0.416748046875,-3.5670731707317076,19.05487804878049,-19.451219512195124,1565282317904
-7657,-597,-3427,108,592,-626,-0.9346923828125,-0.0728759765625,-0.4183349609375,3.2926829268292686,18.04878048780488,-19.085365853658537,1565282317913
-7656,-598,-3225,53,530,-626,-0.9345703125,-0.072998046875,-0.3936767578125,1.6158536585365855,16.158536585365855,-19.085365853658537,1565282317930
-7673,-594,-3245,21,248,-633,-0.9366455078125,-0.072509765625,-0.3961181640625,0.6402439024390244,7.560975609756098,-19.29878048780488,1565282317989
-7666,-572,-3323,-524,95,-524,-0.935791015625,-0.06982421875,-0.4056396484375,-15.975609756097562,2.8963414634146343,-15.975609756097562,1565282317997
-7668,-578,-3587,-552,45,-527,-0.93603515625,-0.070556640625,-0.4378662109375,-16.82926829268293,1.3719512195121952,-16.06707317073171,1565282318005
-7674,-588,-3590,-580,-263,-538,-0.936767578125,-0.07177734375,-0.438232421875,-17.682926829268293,-8.01829268292683,-16.402439024390244,1565282318012
-7677,-593,-3325,-603,-320,-554,-0.9371337890625,-0.0723876953125,-0.4058837890625,-18.384146341463417,-9.756097560975611,-16.890243902439025,1565282318023
-7951,-588,-3319,-635,-176,-595,-0.9705810546875,-0.07177734375,-0.4051513671875,-19.35975609756098,-5.365853658536586,-18.140243902439025,1565282318094
-7669,-397,-3223,-494,-840,-853,-0.9361572265625,-0.0484619140625,-0.3934326171875,-15.060975609756099,-25.60975609756098,-26.00609756097561,1565282318101
-7643,-401,-3214,-504,-660,-649,-0.9329833984375,-0.0489501953125,-0.392333984375,-15.365853658536587,-20.121951219512198,-19.78658536585366,1565282318108
-7626,-404,-3455,-770,-679,-710,-0.930908203125,-0.04931640625,-0.4217529296875,-23.475609756097562,-20.701219512195124,-21.646341463414636,1565282318116
-7615,-405,-3435,-778,-691,-1033,-0.9295654296875,-0.0494384765625,-0.4193115234375,-23.719512195121954,-21.06707317073171,-31.493902439024392,1565282318123
-7611,-400,-3410,-785,-702,-908,-0.9290771484375,-0.048828125,-0.416259765625,-23.932926829268293,-21.402439024390247,-27.682926829268297,1565282318199
-8991,-1121,-2996,-1050,-182,-1268,-1.0975341796875,-0.1368408203125,-0.36572265625,-32.01219512195122,-5.548780487804878,-38.65853658536586,1565282318204
-8837,-1125,-2950,-732,-602,-1357,-1.0787353515625,-0.1373291015625,-0.360107421875,-22.31707317073171,-18.353658536585368,-41.3719512195122,1565282318210
-8661,-1137,-3194,-675,-707,-1104,-1.0572509765625,-0.1387939453125,-0.389892578125,-20.57926829268293,-21.55487804878049,-33.65853658536586,1565282318215
-8587,-914,-3160,-680,-760,-1091,-1.0482177734375,-0.111572265625,-0.3857421875,-20.731707317073173,-23.170731707317074,-33.26219512195122,1565282318220
-8588,-945,-3081,-682,-748,-1108,-1.04833984375,-0.1153564453125,-0.3760986328125,-20.79268292682927,-22.80487804878049,-33.78048780487805,1565282318304
-8083,-820,-2227,-156,-1613,-1048,-0.9866943359375,-0.10009765625,-0.2718505859375,-4.75609756097561,-49.176829268292686,-31.951219512195124,1565282318312
-8263,-500,-2427,-382,-1410,-755,-1.0086669921875,-0.06103515625,-0.2962646484375,-11.646341463414634,-42.987804878048784,-23.01829268292683,1565282318324
-7933,-441,-2371,-362,-1451,-711,-0.9683837890625,-0.0538330078125,-0.2894287109375,-11.036585365853659,-44.237804878048784,-21.676829268292686,1565282318335
-7819,-602,-1964,-350,-1473,-853,-0.9544677734375,-0.073486328125,-0.23974609375,-10.670731707317074,-44.90853658536586,-26.00609756097561,1565282318344
-8031,-558,-2143,-325,-1504,-780,-0.9803466796875,-0.068115234375,-0.2615966796875,-9.908536585365855,-45.85365853658537,-23.78048780487805,1565282318408
-7377,-374,-1205,-314,-1489,-516,-0.9005126953125,-0.045654296875,-0.1470947265625,-9.573170731707318,-45.396341463414636,-15.731707317073171,1565282318414
-7390,-349,-1390,-298,-1439,-251,-0.902099609375,-0.0426025390625,-0.169677734375,-9.085365853658537,-43.8719512195122,-7.652439024390245,1565282318420
-7682,-320,-1317,-286,-1628,-250,-0.937744140625,-0.0390625,-0.1607666015625,-8.719512195121952,-49.63414634146342,-7.621951219512196,1565282318428
-7588,-271,-1142,-280,-1218,-228,-0.92626953125,-0.0330810546875,-0.139404296875,-8.536585365853659,-37.13414634146342,-6.951219512195123,1565282318434
-7679,11,-1050,-279,-1158,-181,-0.9373779296875,0.0013427734375,-0.128173828125,-8.506097560975611,-35.30487804878049,-5.5182926829268295,1565282318514
-7922,-63,-570,3,-958,239,-0.967041015625,-0.0076904296875,-0.069580078125,0.09146341463414635,-29.207317073170735,7.286585365853659,1565282318521
-7901,-21,-543,5,-903,557,-0.9644775390625,-0.0025634765625,-0.0662841796875,0.15243902439024393,-27.53048780487805,16.981707317073173,1565282318528
-7880,279,-532,-265,-1113,607,-0.9619140625,0.0340576171875,-0.06494140625,-8.079268292682928,-33.9329268292683,18.50609756097561,1565282318537
-7864,320,-529,-295,-1058,390,-0.9599609375,0.0390625,-0.0645751953125,-8.99390243902439,-32.25609756097561,11.890243902439025,1565282318550
-7831,376,-524,-338,-743,443,-0.9559326171875,0.0458984375,-0.06396484375,-10.30487804878049,-22.652439024390247,13.506097560975611,1565282318618
-7615,125,-533,-861,-560,141,-0.9295654296875,0.0152587890625,-0.0650634765625,-26.250000000000004,-17.073170731707318,4.298780487804878,1565282318725
-7584,36,-540,-885,-526,309,-0.92578125,0.00439453125,-0.06591796875,-26.981707317073173,-16.03658536585366,9.420731707317074,1565282318734
-7582,-261,-531,-660,-201,-118,-0.925537109375,-0.0318603515625,-0.0648193359375,-20.121951219512198,-6.128048780487806,-3.5975609756097566,1565282318750
-7586,-296,-519,-668,-176,71,-0.926025390625,-0.0361328125,-0.0633544921875,-20.365853658536587,-5.365853658536586,2.164634146341464,1565282318763
-7583,-329,-256,-668,-164,24,-0.9256591796875,-0.0401611328125,-0.03125,-20.365853658536587,-5.0,0.7317073170731708,1565282318771
-7693,-234,-207,-784,8,13,-0.9390869140625,-0.028564453125,-0.0252685546875,-23.902439024390247,0.24390243902439027,0.39634146341463417,1565282318828
-7415,-233,-204,-483,38,33,-0.9051513671875,-0.0284423828125,-0.02490234375,-14.725609756097562,1.1585365853658538,1.0060975609756098,1565282318832
-7394,-228,-209,-435,75,49,-0.902587890625,-0.02783203125,-0.0255126953125,-13.26219512195122,2.2865853658536586,1.4939024390243905,1565282318837
-7387,-213,-221,-387,125,58,-0.9017333984375,-0.0260009765625,-0.0269775390625,-11.79878048780488,3.810975609756098,1.7682926829268295,1565282318844
-7403,-206,-232,-545,-23,75,-0.9036865234375,-0.025146484375,-0.0283203125,-16.615853658536587,-0.701219512195122,2.2865853658536586,1565282318851
-7735,-232,-575,90,527,28,-0.9442138671875,-0.0283203125,-0.0701904296875,2.7439024390243905,16.06707317073171,0.853658536585366,1565282318934
-7770,-256,-572,-71,597,-352,-0.948486328125,-0.03125,-0.06982421875,-2.164634146341464,18.201219512195124,-10.731707317073171,1565282318942
-8025,-423,-396,182,648,-918,-0.9796142578125,-0.0516357421875,-0.04833984375,5.548780487804878,19.75609756097561,-27.987804878048784,1565282318950
-8014,-417,-418,177,640,-968,-0.978271484375,-0.0509033203125,-0.051025390625,5.396341463414634,19.512195121951223,-29.512195121951223,1565282318956
-8016,-430,-418,370,657,-1017,-0.978515625,-0.052490234375,-0.051025390625,11.28048780487805,20.03048780487805,-31.00609756097561,1565282318965
-8029,-438,-413,340,674,-1318,-0.9801025390625,-0.053466796875,-0.0504150390625,10.365853658536587,20.54878048780488,-40.1829268292683,1565282319039
-8582,-818,-718,-89,699,-462,-1.047607421875,-0.099853515625,-0.087646484375,-2.713414634146342,21.3109756097561,-14.085365853658537,1565282319047
-8323,-783,-1106,49,702,-495,-1.0159912109375,-0.0955810546875,-0.135009765625,1.4939024390243905,21.402439024390247,-15.091463414634148,1565282319055
-8480,-780,-952,-230,1281,-727,-1.03515625,-0.09521484375,-0.1162109375,-7.01219512195122,39.054878048780495,-22.164634146341466,1565282319064
-8178,-506,-997,-570,1357,-753,-0.998291015625,-0.061767578125,-0.1217041015625,-17.378048780487806,41.3719512195122,-22.957317073170735,1565282319075
-8139,-444,-1203,-627,1356,-758,-0.9935302734375,-0.05419921875,-0.1468505859375,-19.115853658536587,41.34146341463415,-23.10975609756098,1565282319143
-8056,-877,-2089,-1367,1496,-1494,-0.9833984375,-0.1070556640625,-0.2550048828125,-41.676829268292686,45.60975609756098,-45.54878048780488,1565282319155
-7815,-889,-2000,-1171,1496,-1479,-0.9539794921875,-0.1085205078125,-0.244140625,-35.701219512195124,45.60975609756098,-45.09146341463415,1565282319163
-8046,-661,-2331,-1555,1453,-1607,-0.982177734375,-0.0806884765625,-0.2845458984375,-47.40853658536586,44.29878048780488,-48.993902439024396,1565282319170
-8034,-706,-2402,-1628,1433,-1537,-0.980712890625,-0.086181640625,-0.293212890625,-49.63414634146342,43.68902439024391,-46.85975609756098,1565282319178
-8059,-1037,-2208,-1446,1437,-1227,-0.9837646484375,-0.1265869140625,-0.26953125,-44.08536585365854,43.8109756097561,-37.40853658536586,1565282319249
-8064,-1199,-2491,-1365,860,-704,-0.984375,-0.1463623046875,-0.3040771484375,-41.61585365853659,26.219512195121954,-21.463414634146343,1565282319257
-8034,-1214,-2530,-1289,769,-679,-0.980712890625,-0.148193359375,-0.308837890625,-39.29878048780488,23.445121951219516,-20.701219512195124,1565282319266
-7978,-1265,-2852,-966,611,-641,-0.973876953125,-0.1544189453125,-0.34814453125,-29.451219512195124,18.628048780487806,-19.54268292682927,1565282319274
-7960,-1562,-2869,-1121,558,-889,-0.9716796875,-0.190673828125,-0.3502197265625,-34.176829268292686,17.012195121951223,-27.103658536585368,1565282319282
-7945,-1594,-2899,-1060,252,-869,-0.9698486328125,-0.194580078125,-0.3538818359375,-32.31707317073171,7.682926829268293,-26.493902439024392,1565282319354
-7916,-1250,-3026,-495,392,-290,-0.96630859375,-0.152587890625,-0.369384765625,-15.091463414634148,11.951219512195124,-8.841463414634147,1565282319360
-8195,-1212,-3067,-511,394,105,-1.0003662109375,-0.14794921875,-0.3743896484375,-15.579268292682928,12.01219512195122,3.2012195121951224,1565282319367
-8211,-1181,-3360,-800,396,-23,-1.0023193359375,-0.1441650390625,-0.41015625,-24.390243902439025,12.073170731707318,-0.701219512195122,1565282319373
-8233,-1397,-3398,-837,397,350,-1.0050048828125,-0.1705322265625,-0.414794921875,-25.51829268292683,12.103658536585368,10.670731707317074,1565282319385
-8248,-1388,-3402,-643,638,559,-1.0068359375,-0.16943359375,-0.415283203125,-19.603658536585368,19.451219512195124,17.04268292682927,1565282319460
-8202,-1292,-3012,-439,-66,839,-1.001220703125,-0.15771484375,-0.36767578125,-13.384146341463415,-2.0121951219512195,25.57926829268293,1565282319476
-7899,-1015,-2985,-586,-209,830,-0.9642333984375,-0.1239013671875,-0.3643798828125,-17.865853658536587,-6.371951219512195,25.30487804878049,1565282319486
-7838,-998,-2956,-539,-621,814,-0.956787109375,-0.121826171875,-0.36083984375,-16.432926829268293,-18.932926829268293,24.81707317073171,1565282319494
-8024,-992,-3187,-244,-783,792,-0.9794921875,-0.12109375,-0.3890380859375,-7.439024390243903,-23.871951219512198,24.146341463414636,1565282319504
-7595,-984,-3158,-211,-686,454,-0.9271240234375,-0.1201171875,-0.385498046875,-6.432926829268293,-20.914634146341466,13.841463414634148,1565282319564
-7246,-1096,-2726,116,-1247,-10,-0.884521484375,-0.1337890625,-0.332763671875,3.536585365853659,-38.018292682926834,-0.30487804878048785,1565282319569
-6886,-1028,-2722,-40,-1214,-32,-0.840576171875,-0.12548828125,-0.332275390625,-1.2195121951219514,-37.01219512195122,-0.9756097560975611,1565282319576
-6849,-729,-2723,260,-1178,-37,-0.8360595703125,-0.0889892578125,-0.3323974609375,7.926829268292684,-35.91463414634147,-1.128048780487805,1565282319584
-6841,-692,-2745,294,-1373,-45,-0.8350830078125,-0.08447265625,-0.3350830078125,8.963414634146343,-41.85975609756098,-1.3719512195121952,1565282319591
-7209,-875,-2734,317,-923,-60,-0.8800048828125,-0.1068115234375,-0.333740234375,9.664634146341465,-28.14024390243903,-1.829268292682927,1565282319669
-7643,-614,-2887,328,-863,228,-0.9329833984375,-0.074951171875,-0.3524169921875,10.0,-26.3109756097561,6.951219512195123,1565282319676
-8295,-500,-2732,299,-799,229,-1.0125732421875,-0.06103515625,-0.33349609375,9.115853658536587,-24.35975609756098,6.981707317073171,1565282319682
-8582,-739,-2926,25,22,319,-1.047607421875,-0.0902099609375,-0.357177734375,0.7621951219512195,0.6707317073170732,9.725609756097562,1565282319689
-9558,-918,-2639,-379,344,-49,-1.166748046875,-0.112060546875,-0.3221435546875,-11.55487804878049,10.487804878048781,-1.4939024390243905,1565282319702
-9697,-1127,-2413,4,122,324,-1.1837158203125,-0.1375732421875,-0.2945556640625,0.12195121951219513,3.7195121951219514,9.878048780487806,1565282319774
-8435,-213,-1902,-124,-1476,-132,-1.0296630859375,-0.0260009765625,-0.232177734375,-3.780487804878049,-45.00000000000001,-4.024390243902439,1565282319780
-8572,-237,-1838,-54,-1893,-518,-1.04638671875,-0.0289306640625,-0.224365234375,-1.6463414634146343,-57.713414634146346,-15.79268292682927,1565282319787
-8385,-610,-1632,275,-1728,-684,-1.0235595703125,-0.074462890625,-0.19921875,8.384146341463415,-52.6829268292683,-20.853658536585368,1565282319793
-8761,-409,-1241,338,-1778,-1030,-1.0694580078125,-0.0499267578125,-0.1514892578125,10.30487804878049,-54.207317073170735,-31.402439024390247,1565282319799
-8825,-471,-1281,176,-2153,-762,-1.0772705078125,-0.0574951171875,-0.1563720703125,5.365853658536586,-65.64024390243902,-23.231707317073173,1565282319879
-7556,-272,-835,776,-2891,-433,-0.92236328125,-0.033203125,-0.1019287109375,23.658536585365855,-88.14024390243904,-13.201219512195124,1565282319886
-7410,17,-786,453,-2828,-511,-0.904541015625,0.0020751953125,-0.095947265625,13.810975609756099,-86.21951219512196,-15.579268292682928,1565282319894
-7343,21,-638,623,-2559,-677,-0.8963623046875,0.0025634765625,-0.077880859375,18.993902439024392,-78.01829268292684,-20.640243902439025,1565282319909
-7387,-257,-551,170,-2421,-716,-0.9017333984375,-0.0313720703125,-0.0672607421875,5.182926829268293,-73.8109756097561,-21.82926829268293,1565282319920
-7712,-300,-208,337,-2305,-725,-0.94140625,-0.03662109375,-0.025390625,10.27439024390244,-70.27439024390245,-22.103658536585368,1565282319984
-7806,-586,-69,58,-1486,-277,-0.952880859375,-0.071533203125,-0.0084228515625,1.7682926829268295,-45.304878048780495,-8.445121951219512,1565282319989
-7734,-590,-61,49,-1646,49,-0.944091796875,-0.072021484375,-0.0074462890625,1.4939024390243905,-50.1829268292683,1.4939024390243905,1565282319995
-7382,-581,-62,44,-1541,100,-0.901123046875,-0.0709228515625,-0.007568359375,1.3414634146341464,-46.98170731707317,3.048780487804878,1565282320001
-7468,-573,-86,40,-1162,-115,-0.91162109375,-0.0699462890625,-0.010498046875,1.2195121951219514,-35.426829268292686,-3.50609756097561,1565282320008
-7431,-593,-96,6,-1068,118,-0.9071044921875,-0.0723876953125,-0.01171875,0.1829268292682927,-32.5609756097561,3.5975609756097566,1565282320089
-7359,-878,258,-56,-44,-356,-0.8983154296875,-0.107177734375,0.031494140625,-1.707317073170732,-1.3414634146341464,-10.853658536585368,1565282320098
-7380,-644,257,318,142,-187,-0.90087890625,-0.07861328125,0.0313720703125,9.695121951219512,4.329268292682928,-5.701219512195123,1565282320105
-7386,-657,-3,382,214,-225,-0.901611328125,-0.0802001953125,-3.662109375E-4,11.646341463414634,6.52439024390244,-6.859756097560976,1565282320125
-7401,-655,257,185,528,-524,-0.9034423828125,-0.0799560546875,0.0313720703125,5.640243902439025,16.097560975609756,-15.975609756097562,1565282320132
-7423,-650,270,520,625,-635,-0.9061279296875,-0.079345703125,0.032958984375,15.853658536585368,19.05487804878049,-19.35975609756098,1565282320193
-7344,-844,341,198,569,-654,-0.896484375,-0.10302734375,0.0416259765625,6.036585365853659,17.347560975609756,-19.939024390243905,1565282320198
-7335,-848,337,362,562,-669,-0.8953857421875,-0.103515625,0.0411376953125,11.036585365853659,17.134146341463417,-20.396341463414636,1565282320202
-7322,-853,330,312,555,-683,-0.893798828125,-0.1041259765625,0.040283203125,9.51219512195122,16.920731707317074,-20.823170731707318,1565282320206
-7308,-859,311,257,550,-697,-0.89208984375,-0.1048583984375,0.0379638671875,7.835365853658537,16.76829268292683,-21.250000000000004,1565282320210
-7303,-883,296,127,576,-730,-0.8914794921875,-0.1077880859375,0.0361328125,3.8719512195121957,17.5609756097561,-22.25609756097561,1565282320300
-7333,-758,-101,-525,399,-758,-0.8951416015625,-0.092529296875,-0.0123291015625,-16.00609756097561,12.164634146341465,-23.10975609756098,1565282320309
-7340,-1063,-122,-600,439,-1076,-0.89599609375,-0.1297607421875,-0.014892578125,-18.29268292682927,13.384146341463415,-32.80487804878049,1565282320324
-7386,-1104,124,-636,472,-1117,-0.901611328125,-0.134765625,0.01513671875,-19.390243902439025,14.390243902439027,-34.05487804878049,1565282320338
-7707,-1149,121,-408,489,-1147,-0.9407958984375,-0.1402587890625,0.0147705078125,-12.439024390243903,14.908536585365855,-34.96951219512196,1565282320344
-7767,-940,-124,-427,484,-911,-0.9481201171875,-0.11474609375,-0.01513671875,-13.01829268292683,14.756097560975611,-27.77439024390244,1565282320404
-8343,-1892,-288,-868,1089,-1429,-1.0184326171875,-0.23095703125,-0.03515625,-26.463414634146343,33.201219512195124,-43.56707317073171,1565282320411
-8884,-2084,-82,-680,1022,-1506,-1.08447265625,-0.25439453125,-0.010009765625,-20.731707317073173,31.158536585365855,-45.91463414634147,1565282320418
-9326,-2080,-92,-598,406,-1319,-1.138427734375,-0.25390625,-0.01123046875,-18.231707317073173,12.378048780487806,-40.213414634146346,1565282320424
-9038,-1739,32,-231,334,-1133,-1.103271484375,-0.2122802734375,0.00390625,-7.0426829268292686,10.182926829268293,-34.54268292682927,1565282320431
-8756,-1709,-160,-238,-34,-913,-1.06884765625,-0.2086181640625,-0.01953125,-7.25609756097561,-1.0365853658536586,-27.83536585365854,1565282320509
-7142,-1422,-762,-903,213,-1936,-0.871826171875,-0.173583984375,-0.093017578125,-27.53048780487805,6.4939024390243905,-59.024390243902445,1565282320516
-7089,-1439,-1105,-1309,603,-2358,-0.8653564453125,-0.1756591796875,-0.1348876953125,-39.90853658536586,18.384146341463417,-71.89024390243902,1565282320523
-7058,-1512,-1315,-1189,449,-2231,-0.861572265625,-0.1845703125,-0.1605224609375,-36.25,13.689024390243903,-68.01829268292684,1565282320530
-7293,-1838,-1169,-1449,862,-2450,-0.8902587890625,-0.224365234375,-0.1427001953125,-44.176829268292686,26.28048780487805,-74.69512195121952,1565282320538
-7108,-1678,-1272,-1850,726,-2546,-0.86767578125,-0.204833984375,-0.1552734375,-56.40243902439025,22.134146341463417,-77.6219512195122,1565282320614
-7569,-1957,-2323,-2301,1115,-2520,-0.9239501953125,-0.2388916015625,-0.2835693359375,-70.15243902439025,33.993902439024396,-76.82926829268294,1565282320621
-7612,-1953,-2389,-2672,1129,-2541,-0.92919921875,-0.2384033203125,-0.2916259765625,-81.46341463414635,34.420731707317074,-77.46951219512196,1565282320630
-7663,-1965,-2191,-2534,1119,-2553,-0.9354248046875,-0.2398681640625,-0.2674560546875,-77.25609756097562,34.11585365853659,-77.83536585365854,1565282320637
-8027,-2015,-2568,-2773,1044,-2556,-0.9798583984375,-0.2459716796875,-0.3134765625,-84.54268292682927,31.82926829268293,-77.92682926829269,1565282320645
-7826,-2042,-2617,-3139,738,-2550,-0.955322265625,-0.249267578125,-0.3194580078125,-95.70121951219512,22.500000000000004,-77.7439024390244,1565282320721
-8304,-2171,-2932,-3714,345,-2087,-1.013671875,-0.2650146484375,-0.35791015625,-113.23170731707319,10.51829268292683,-63.62804878048781,1565282320730
-8208,-1947,-2710,-4369,-28,-1720,-1.001953125,-0.2376708984375,-0.330810546875,-133.20121951219514,-0.853658536585366,-52.43902439024391,1565282320738
-7845,-2001,-2736,-4319,124,-1908,-0.9576416015625,-0.2442626953125,-0.333984375,-131.6768292682927,3.780487804878049,-58.17073170731708,1565282320743
-7994,-2330,-2758,-4516,33,-1880,-0.975830078125,-0.284423828125,-0.336669921875,-137.6829268292683,1.0060975609756098,-57.31707317073171,1565282320749
-7574,-2261,-2793,-4956,-305,-1896,-0.924560546875,-0.2760009765625,-0.3409423828125,-151.09756097560978,-9.298780487804878,-57.804878048780495,1565282320823
-7487,-2968,-2777,-5280,-898,-2109,-0.9139404296875,-0.3623046875,-0.3389892578125,-160.97560975609758,-27.378048780487806,-64.29878048780489,1565282320829
-7168,-3026,-2769,-5473,-1284,-2095,-0.875,-0.369384765625,-0.3380126953125,-166.859756097561,-39.146341463414636,-63.8719512195122,1565282320835
-7290,-3393,-2746,-5055,-1261,-1791,-0.889892578125,-0.4141845703125,-0.335205078125,-154.1158536585366,-38.44512195121951,-54.60365853658537,1565282320844
-7223,-3451,-2737,-5208,-1619,-1755,-0.8817138671875,-0.4212646484375,-0.3341064453125,-158.78048780487805,-49.35975609756098,-53.50609756097561,1565282320850
-6905,-3253,-2726,-4833,-1451,-1715,-0.8428955078125,-0.3970947265625,-0.332763671875,-147.34756097560978,-44.237804878048784,-52.28658536585366,1565282320930
-6918,-3917,-2885,-3501,-2109,-1552,-0.844482421875,-0.4781494140625,-0.3521728515625,-106.73780487804879,-64.29878048780489,-47.31707317073171,1565282320939
-6972,-3715,-2839,-3227,-2101,-1153,-0.85107421875,-0.4534912109375,-0.3465576171875,-98.38414634146342,-64.0548780487805,-35.15243902439025,1565282320953
-7011,-3742,-2544,-3350,-2097,-1319,-0.8558349609375,-0.456787109375,-0.310546875,-102.13414634146342,-63.9329268292683,-40.213414634146346,1565282320967
-6795,-3763,-2493,-2951,-2096,-958,-0.8294677734375,-0.4593505859375,-0.3043212890625,-89.96951219512196,-63.90243902439025,-29.207317073170735,1565282320980
-6891,-3740,-2636,-2881,-2102,-735,-0.8411865234375,-0.45654296875,-0.32177734375,-87.83536585365854,-64.08536585365854,-22.408536585365855,1565282321034
-6896,-3477,-2206,-2042,-2007,44,-0.841796875,-0.4244384765625,-0.269287109375,-62.25609756097562,-61.18902439024391,1.3414634146341464,1565282321041
-6846,-3685,-2197,-2020,-2026,-120,-0.835693359375,-0.4498291015625,-0.2681884765625,-61.585365853658544,-61.768292682926834,-3.658536585365854,1565282321047
-6834,-3669,-2187,-2034,-2019,-98,-0.834228515625,-0.4478759765625,-0.2669677734375,-62.01219512195122,-61.554878048780495,-2.987804878048781,1565282321054
-6838,-3670,-2421,-2323,-2003,-93,-0.834716796875,-0.447998046875,-0.2955322265625,-70.82317073170732,-61.06707317073171,-2.8353658536585367,1565282321062
-6858,-3684,-2393,-2360,-1994,-96,-0.837158203125,-0.44970703125,-0.2921142578125,-71.95121951219512,-60.79268292682927,-2.9268292682926833,1565282321138
-6856,-3574,-1926,-2199,-2636,4,-0.8369140625,-0.436279296875,-0.235107421875,-67.04268292682927,-80.3658536585366,0.12195121951219513,1565282321144
-6848,-3847,-2165,-2212,-2435,-283,-0.8359375,-0.4696044921875,-0.2642822265625,-67.43902439024392,-74.23780487804879,-8.628048780487806,1565282321149
-6834,-3878,-2124,-2245,-2539,-330,-0.834228515625,-0.473388671875,-0.25927734375,-68.44512195121952,-77.40853658536587,-10.060975609756099,1565282321157
-6825,-3899,-2103,-2260,-2847,-342,-0.8331298828125,-0.4759521484375,-0.2567138671875,-68.90243902439025,-86.79878048780489,-10.426829268292684,1565282321162
-6814,-3919,-2087,-2269,-2902,-346,-0.831787109375,-0.4783935546875,-0.2547607421875,-69.17682926829269,-88.47560975609757,-10.548780487804878,1565282321244
-6972,-3781,-1808,-2212,-3155,-268,-0.85107421875,-0.4615478515625,-0.220703125,-67.43902439024392,-96.18902439024392,-8.170731707317074,1565282321248
-6958,-3774,-1507,-2193,-3158,-257,-0.849365234375,-0.460693359375,-0.1839599609375,-66.85975609756098,-96.28048780487806,-7.835365853658537,1565282321255
-6940,-3758,-1470,-2429,-3160,13,-0.84716796875,-0.458740234375,-0.179443359375,-74.0548780487805,-96.34146341463415,0.39634146341463417,1565282321261
-6628,-3729,-1644,-2411,-3160,33,-0.80908203125,-0.4552001953125,-0.20068359375,-73.50609756097562,-96.34146341463415,1.0060975609756098,1565282321267
-6613,-3714,-1596,-2400,-3125,25,-0.8072509765625,-0.453369140625,-0.19482421875,-73.17073170731707,-95.27439024390245,0.7621951219512195,1565282321349
-6701,-3291,-1010,-2271,-2866,-157,-0.8179931640625,-0.4017333984375,-0.123291015625,-69.23780487804879,-87.37804878048782,-4.786585365853659,1565282321357
-6672,-3254,-969,-2588,-2823,-208,-0.814453125,-0.397216796875,-0.1182861328125,-78.90243902439025,-86.06707317073172,-6.341463414634147,1565282321370
-6360,-3223,-946,-2647,-2523,-597,-0.7763671875,-0.3934326171875,-0.115478515625,-80.70121951219512,-76.92073170731707,-18.201219512195124,1565282321381
-6391,-3295,-1284,-2819,-2588,-438,-0.7801513671875,-0.4022216796875,-0.15673828125,-85.94512195121952,-78.90243902439025,-13.353658536585368,1565282321453
-6607,-3533,-1176,-2767,-2029,-842,-0.8065185546875,-0.4312744140625,-0.1435546875,-84.35975609756099,-61.85975609756098,-25.670731707317074,1565282321459
-7719,-4163,-737,-3295,-1703,-677,-0.9422607421875,-0.5081787109375,-0.0899658203125,-100.45731707317074,-51.920731707317074,-20.640243902439025,1565282321466
-7584,-4183,-861,-3632,-1888,-844,-0.92578125,-0.5106201171875,-0.1051025390625,-110.73170731707319,-57.560975609756106,-25.731707317073173,1565282321473
-7799,-4209,-780,-3634,-1704,-608,-0.9520263671875,-0.5137939453125,-0.09521484375,-110.79268292682927,-51.951219512195124,-18.53658536585366,1565282321484
-7544,-4003,-508,-3626,-2077,-210,-0.9208984375,-0.4886474609375,-0.06201171875,-110.54878048780489,-63.32317073170732,-6.402439024390245,1565282321560
-7541,-4065,-455,-3639,-1767,-600,-0.9205322265625,-0.4962158203125,-0.0555419921875,-110.94512195121952,-53.8719512195122,-18.29268292682927,1565282321568
-6621,-4206,-374,-2744,-2646,-860,-0.8082275390625,-0.513427734375,-0.045654296875,-83.65853658536587,-80.67073170731707,-26.219512195121954,1565282321579
-6749,-4181,-337,-2724,-2649,-687,-0.8238525390625,-0.5103759765625,-0.0411376953125,-83.04878048780489,-80.76219512195122,-20.945121951219512,1565282321589
-6395,-4173,-318,-2702,-2644,-1040,-0.7806396484375,-0.5093994140625,-0.038818359375,-82.37804878048782,-80.60975609756099,-31.707317073170735,1565282321601
-6330,-4176,-297,-2931,-2628,-1119,-0.772705078125,-0.509765625,-0.0362548828125,-89.35975609756099,-80.1219512195122,-34.11585365853659,1565282321663
-7017,-3788,597,-2923,-1930,-895,-0.8565673828125,-0.46240234375,0.0728759765625,-89.1158536585366,-58.84146341463415,-27.28658536585366,1565282321668
-6826,-3915,489,-2937,-2166,-475,-0.833251953125,-0.4779052734375,0.0596923828125,-89.54268292682927,-66.03658536585367,-14.481707317073171,1565282321673
-6798,-3566,507,-2698,-1922,-349,-0.829833984375,-0.435302734375,0.0618896484375,-82.25609756097562,-58.59756097560976,-10.640243902439025,1565282321682
-6988,-3463,506,-2730,-2159,80,-0.85302734375,-0.4227294921875,0.061767578125,-83.23170731707317,-65.82317073170732,2.439024390243903,1565282321690
-6920,-3621,504,-2791,-2098,-29,-0.8447265625,-0.4420166015625,0.0615234375,-85.09146341463415,-63.963414634146346,-0.8841463414634148,1565282321769
-6365,-3129,192,-4211,-642,893,-0.7769775390625,-0.3819580078125,0.0234375,-128.38414634146343,-19.573170731707318,27.225609756097562,1565282321776
-6400,-3148,341,-4065,-505,882,-0.78125,-0.38427734375,0.0416259765625,-123.9329268292683,-15.396341463414636,26.89024390243903,1565282321784
-6678,-3177,278,-4244,-513,860,-0.815185546875,-0.3878173828125,0.033935546875,-129.39024390243904,-15.640243902439027,26.219512195121954,1565282321794
-6702,-2963,-37,-4322,-141,826,-0.818115234375,-0.3616943359375,-0.0045166015625,-131.76829268292684,-4.298780487804878,25.182926829268293,1565282321804
-6723,-3017,-101,-4642,-288,785,-0.8206787109375,-0.3682861328125,-0.0123291015625,-141.52439024390245,-8.78048780487805,23.932926829268293,1565282321874
-6767,-3311,-565,-4665,515,-1,-0.8260498046875,-0.4041748046875,-0.0689697265625,-142.22560975609758,15.701219512195124,-0.030487804878048783,1565282321880
-6773,-3588,-623,-4643,559,-86,-0.8267822265625,-0.43798828125,-0.0760498046875,-141.5548780487805,17.04268292682927,-2.6219512195121952,1565282321886
-6776,-3607,-476,-4612,599,92,-0.8271484375,-0.4403076171875,-0.05810546875,-140.609756097561,18.262195121951223,2.804878048780488,1565282321896
-6546,-3656,-791,-4296,420,-317,-0.799072265625,-0.4462890625,-0.0965576171875,-130.97560975609758,12.80487804878049,-9.664634146341465,1565282321903
-6567,-3682,-838,-4265,456,-135,-0.8016357421875,-0.449462890625,-0.102294921875,-130.03048780487805,13.902439024390246,-4.115853658536586,1565282321979
-6985,-3951,-1009,-3804,467,-499,-0.8526611328125,-0.4822998046875,-0.1231689453125,-115.97560975609757,14.237804878048781,-15.213414634146343,1565282321985
-6981,-3735,-1311,-3745,450,-799,-0.8521728515625,-0.4559326171875,-0.1600341796875,-114.17682926829269,13.719512195121952,-24.35975609756098,1565282321991
-6966,-3776,-1365,-3941,431,-852,-0.850341796875,-0.4609375,-0.1666259765625,-120.15243902439025,13.140243902439025,-25.975609756097562,1565282321996
-6943,-3814,-1167,-3886,413,-656,-0.8475341796875,-0.465576171875,-0.1424560546875,-118.47560975609757,12.591463414634147,-20.0,1565282322001
-6650,-4181,-1262,-3548,403,-1070,-0.811767578125,-0.5103759765625,-0.154052734375,-108.17073170731709,12.286585365853659,-32.6219512195122,1565282322085
-6767,-4347,-1517,-3392,586,-1441,-0.8260498046875,-0.5306396484375,-0.1851806640625,-103.41463414634147,17.865853658536587,-43.9329268292683,1565282322094
-6699,-4669,-1896,-3052,596,-1894,-0.8177490234375,-0.5699462890625,-0.2314453125,-93.04878048780489,18.170731707317074,-57.743902439024396,1565282322105
-6721,-4493,-1744,-3174,395,-1735,-0.8204345703125,-0.5484619140625,-0.212890625,-96.76829268292684,12.042682926829269,-52.896341463414636,1565282322121
-6586,-4918,-2173,-3170,793,-2097,-0.803955078125,-0.600341796875,-0.2652587890625,-96.64634146341464,24.176829268292686,-63.9329268292683,1565282322142
-6890,-5189,-2019,-2997,1056,-1971,-0.841064453125,-0.6334228515625,-0.2464599609375,-91.3719512195122,32.19512195121951,-60.09146341463415,1565282322189
-6992,-5186,-2864,-2840,835,-1941,-0.853515625,-0.633056640625,-0.349609375,-86.58536585365854,25.457317073170735,-59.176829268292686,1565282322196
-6655,-4830,-2931,-2826,836,-2120,-0.8123779296875,-0.589599609375,-0.3577880859375,-86.15853658536587,25.48780487804878,-64.63414634146342,1565282322202
-6776,-4973,-2782,-2538,795,-1769,-0.8271484375,-0.6070556640625,-0.339599609375,-77.37804878048782,24.23780487804878,-53.9329268292683,1565282322213
-6311,-4540,-3012,-2849,839,-1756,-0.7703857421875,-0.55419921875,-0.36767578125,-86.85975609756099,25.57926829268293,-53.53658536585366,1565282322219
-6311,-4489,-3337,-2915,666,-2049,-0.7703857421875,-0.5479736328125,-0.4073486328125,-88.8719512195122,20.30487804878049,-62.46951219512196,1565282322293
-6058,-4430,-3849,-2795,526,-1182,-0.739501953125,-0.540771484375,-0.4698486328125,-85.21341463414635,16.03658536585366,-36.03658536585366,1565282322299
-6042,-4237,-3889,-2779,202,-1157,-0.737548828125,-0.5172119140625,-0.4747314453125,-84.72560975609757,6.158536585365854,-35.274390243902445,1565282322305
-6267,-4625,-3737,-2924,273,-1370,-0.7650146484375,-0.5645751953125,-0.4561767578125,-89.14634146341464,8.323170731707318,-41.768292682926834,1565282322313
-6242,-4685,-3808,-2849,-72,-1364,-0.761962890625,-0.5718994140625,-0.46484375,-86.85975609756099,-2.1951219512195124,-41.58536585365854,1565282322318
-6238,-4494,-4144,-2523,114,-1380,-0.761474609375,-0.548583984375,-0.505859375,-76.92073170731707,3.4756097560975614,-42.07317073170732,1565282322399
-6300,-5127,-4639,-2327,-244,-1107,-0.76904296875,-0.6258544921875,-0.5662841796875,-70.94512195121952,-7.439024390243903,-33.75,1565282322406
-6277,-4861,-4677,-1994,-565,-714,-0.7662353515625,-0.5933837890625,-0.5709228515625,-60.79268292682927,-17.225609756097562,-21.76829268292683,1565282322413
-6509,-4836,-4725,-1931,-607,-842,-0.7945556640625,-0.59033203125,-0.5767822265625,-58.8719512195122,-18.50609756097561,-25.670731707317074,1565282322423
-6505,-4821,-4726,-2102,-626,-611,-0.7940673828125,-0.5885009765625,-0.576904296875,-64.08536585365854,-19.085365853658537,-18.628048780487806,1565282322436
-6273,-4797,-4710,-2059,-634,-227,-0.7657470703125,-0.5855712890625,-0.574951171875,-62.774390243902445,-19.32926829268293,-6.920731707317074,1565282322505
-6115,-4656,-4423,-1778,-997,620,-0.7464599609375,-0.568359375,-0.5399169921875,-54.207317073170735,-30.396341463414636,18.902439024390244,1565282322512
-6104,-4617,-4380,-1508,-1362,416,-0.7451171875,-0.5635986328125,-0.53466796875,-45.97560975609756,-41.524390243902445,12.682926829268293,1565282322519
-6089,-4322,-4080,-1495,-1231,457,-0.7432861328125,-0.527587890625,-0.498046875,-45.57926829268293,-37.53048780487805,13.932926829268293,1565282322533
-6066,-4282,-4046,-1484,-1623,485,-0.740478515625,-0.522705078125,-0.493896484375,-45.243902439024396,-49.48170731707317,14.786585365853659,1565282322540
-6254,-4469,-3992,-1475,-1508,491,-0.763427734375,-0.5455322265625,-0.4873046875,-44.96951219512196,-45.97560975609756,14.969512195121952,1565282322608
-5777,-4027,-3726,-1835,-2552,145,-0.7052001953125,-0.4915771484375,-0.454833984375,-55.94512195121952,-77.8048780487805,4.420731707317073,1565282322614
-5772,-4214,-3944,-1865,-2931,329,-0.70458984375,-0.514404296875,-0.4814453125,-56.85975609756098,-89.35975609756099,10.03048780487805,1565282322620
-5773,-4173,-3913,-1882,-2728,315,-0.7047119140625,-0.5093994140625,-0.4776611328125,-57.37804878048781,-83.17073170731707,9.603658536585368,1565282322627
-5775,-4131,-3889,-1904,-2770,313,-0.7049560546875,-0.5042724609375,-0.4747314453125,-58.04878048780488,-84.45121951219512,9.542682926829269,1565282322633
-5783,-3833,-3558,-1680,-2797,324,-0.7059326171875,-0.4678955078125,-0.434326171875,-51.21951219512196,-85.27439024390245,9.878048780487806,1565282322714
-6218,-3854,-3520,-2354,-2881,465,-0.759033203125,-0.470458984375,-0.4296875,-71.76829268292684,-87.83536585365854,14.176829268292684,1565282322721
-6256,-3859,-3523,-2411,-2837,784,-0.763671875,-0.4710693359375,-0.4300537109375,-73.50609756097562,-86.4939024390244,23.902439024390247,1565282322819
-6075,-3877,-3533,-2245,-2479,862,-0.7415771484375,-0.4732666015625,-0.4312744140625,-68.44512195121952,-75.57926829268294,26.28048780487805,1565282322828
-6111,-3889,-3544,-2272,-2680,890,-0.7459716796875,-0.4747314453125,-0.4326171875,-69.26829268292684,-81.70731707317074,27.134146341463417,1565282322835
-6411,-3899,-3561,-2291,-2618,654,-0.7825927734375,-0.4759521484375,-0.4346923828125,-69.84756097560977,-79.81707317073172,19.939024390243905,1565282322844
-6794,-3991,-3824,-2431,-1782,410,-0.829345703125,-0.4871826171875,-0.466796875,-74.1158536585366,-54.32926829268293,12.500000000000002,1565282322858
-7510,-4261,-4098,-2572,-1415,523,-0.916748046875,-0.5201416015625,-0.500244140625,-78.41463414634147,-43.140243902439025,15.945121951219514,1565282322924
-7994,-4514,-3867,-2688,-1168,174,-0.975830078125,-0.551025390625,-0.4720458984375,-81.95121951219512,-35.609756097560975,5.3048780487804885,1565282322930
-7934,-4866,-3710,-2284,-1584,244,-0.968505859375,-0.593994140625,-0.452880859375,-69.63414634146342,-48.29268292682927,7.439024390243903,1565282322936
-7759,-4635,-3492,-1668,-2000,485,-0.9471435546875,-0.5657958984375,-0.42626953125,-50.85365853658537,-60.97560975609757,14.786585365853659,1565282322942
-7890,-4728,-2840,-1129,-2139,-518,-0.963134765625,-0.5771484375,-0.3466796875,-34.420731707317074,-65.21341463414635,-15.79268292682927,1565282322950
-7908,-4694,-2456,-747,-2006,-558,-0.96533203125,-0.572998046875,-0.2998046875,-22.77439024390244,-61.15853658536586,-17.012195121951223,1565282323029
-6374,-3677,-1458,-885,-2490,-940,-0.778076171875,-0.4488525390625,-0.177978515625,-26.981707317073173,-75.91463414634147,-28.658536585365855,1565282323035
-6674,-3685,-1635,-715,-2686,-938,-0.814697265625,-0.4498291015625,-0.1995849609375,-21.79878048780488,-81.89024390243902,-28.59756097560976,1565282323044
-6738,-3693,-1556,-1060,-2628,-915,-0.822509765625,-0.4508056640625,-0.18994140625,-32.31707317073171,-80.1219512195122,-27.896341463414636,1565282323059
-6552,-3704,-1230,-899,-2574,-1121,-0.7998046875,-0.4521484375,-0.150146484375,-27.408536585365855,-78.47560975609757,-34.176829268292686,1565282323069
-6954,-3472,-1350,-1344,-2229,-665,-0.848876953125,-0.423828125,-0.164794921875,-40.97560975609756,-67.95731707317074,-20.27439024390244,1565282323133
-6601,-3538,-709,-1871,-1963,341,-0.8057861328125,-0.431884765625,-0.0865478515625,-57.04268292682927,-59.84756097560976,10.396341463414634,1565282323138
-6722,-3548,-647,-1681,-2138,170,-0.820556640625,-0.43310546875,-0.0789794921875,-51.25000000000001,-65.1829268292683,5.182926829268293,1565282323142
-6680,-3552,-877,-2071,-1909,155,-0.8154296875,-0.43359375,-0.1070556640625,-63.14024390243903,-58.201219512195124,4.725609756097561,1565282323148
-6399,-3561,-853,-2132,-1523,369,-0.7811279296875,-0.4346923828125,-0.1041259765625,-65.0,-46.4329268292683,11.250000000000002,1565282323152
-6384,-3562,-846,-1924,-1654,303,-0.779296875,-0.434814453125,-0.103271484375,-58.65853658536586,-50.426829268292686,9.237804878048781,1565282323240
-6765,-3445,-948,-1950,-817,-775,-0.8258056640625,-0.4205322265625,-0.11572265625,-59.451219512195124,-24.908536585365855,-23.628048780487806,1565282323255
-6577,-3455,-1291,-1980,-416,-795,-0.8028564453125,-0.4217529296875,-0.1575927734375,-60.365853658536594,-12.682926829268293,-24.23780487804878,1565282323266
-6606,-3240,-1324,-1999,-606,-783,-0.806396484375,-0.3955078125,-0.16162109375,-60.94512195121952,-18.475609756097562,-23.871951219512198,1565282323280
-6645,-3292,-1356,-2018,-537,-508,-0.8111572265625,-0.40185546875,-0.16552734375,-61.524390243902445,-16.371951219512198,-15.487804878048783,1565282323291
-6937,-3620,-1379,-2024,-223,-485,-0.8468017578125,-0.44189453125,-0.1683349609375,-61.707317073170735,-6.798780487804879,-14.786585365853659,1565282323344
-6918,-3965,-1182,-1669,-379,-444,-0.844482421875,-0.4840087890625,-0.144287109375,-50.88414634146342,-11.55487804878049,-13.536585365853659,1565282323350
-6654,-3728,-1197,-1862,-376,-472,-0.812255859375,-0.455078125,-0.1461181640625,-56.768292682926834,-11.463414634146343,-14.390243902439027,1565282323357
-6653,-3768,-1231,-1500,-369,-805,-0.8121337890625,-0.4599609375,-0.1502685546875,-45.73170731707317,-11.250000000000002,-24.542682926829272,1565282323364
-6913,-3791,-1247,-1452,-369,-849,-0.8438720703125,-0.4627685546875,-0.1522216796875,-44.268292682926834,-11.250000000000002,-25.884146341463417,1565282323369
-6650,-3817,-1271,-1661,-371,-891,-0.811767578125,-0.4659423828125,-0.1551513671875,-50.64024390243903,-11.310975609756099,-27.164634146341466,1565282323449
-6566,-4447,-1528,-1333,-243,-1385,-0.801513671875,-0.5428466796875,-0.1865234375,-40.640243902439025,-7.408536585365854,-42.22560975609756,1565282323454
-6555,-4231,-1816,-929,33,-1203,-0.8001708984375,-0.5164794921875,-0.2216796875,-28.323170731707318,1.0060975609756098,-36.676829268292686,1565282323462
-6784,-4269,-1836,-1095,48,-1537,-0.828125,-0.5211181640625,-0.22412109375,-33.38414634146342,1.4634146341463417,-46.85975609756098,1565282323469
-6746,-4296,-1850,-746,61,-1620,-0.823486328125,-0.5244140625,-0.225830078125,-22.743902439024392,1.8597560975609757,-49.39024390243903,1565282323479
-6381,-4306,-1864,-647,71,-1794,-0.7789306640625,-0.525634765625,-0.2275390625,-19.725609756097562,2.164634146341464,-54.69512195121952,1565282323554
-7799,-5379,-1764,-629,747,-2386,-0.9520263671875,-0.6566162109375,-0.21533203125,-19.176829268292686,22.77439024390244,-72.7439024390244,1565282323561
-6840,-5121,-2031,191,75,-1497,-0.8349609375,-0.6251220703125,-0.2479248046875,5.823170731707317,2.2865853658536586,-45.64024390243903,1565282323568
-6777,-4768,-2235,187,113,-1847,-0.8272705078125,-0.58203125,-0.2728271484375,5.701219512195123,3.4451219512195124,-56.3109756097561,1565282323578
-6602,-4857,-2572,-25,207,-2168,-0.805908203125,-0.5928955078125,-0.31396484375,-0.7621951219512195,6.310975609756098,-66.09756097560977,1565282323588
-6910,-5386,-2201,8,831,-2390,-0.843505859375,-0.657470703125,-0.2686767578125,0.24390243902439027,25.335365853658537,-72.8658536585366,1565282323660
-6697,-4876,-2901,10,661,-1886,-0.8175048828125,-0.59521484375,-0.3541259765625,0.30487804878048785,20.152439024390247,-57.50000000000001,1565282323669
-6668,-4594,-2738,-286,654,-1794,-0.81396484375,-0.560791015625,-0.334228515625,-8.719512195121952,19.939024390243905,-54.69512195121952,1565282323680
-6277,-4539,-2787,-360,814,-1480,-0.7662353515625,-0.5540771484375,-0.3402099609375,-10.975609756097562,24.81707317073171,-45.1219512195122,1565282323694
-6434,-4491,-3091,-379,488,-1454,-0.785400390625,-0.5482177734375,-0.3773193359375,-11.55487804878049,14.878048780487806,-44.32926829268293,1565282323708
-6202,-4700,-2986,-138,415,-1653,-0.757080078125,-0.57373046875,-0.364501953125,-4.207317073170732,12.652439024390246,-50.396341463414636,1565282323764
-6025,-5219,-3308,-186,171,-1417,-0.7354736328125,-0.6370849609375,-0.40380859375,-5.670731707317073,5.213414634146342,-43.201219512195124,1565282323770
-6062,-5073,-3652,-158,138,-1441,-0.739990234375,-0.6192626953125,-0.44580078125,-4.817073170731708,4.207317073170732,-43.9329268292683,1565282323777
-6424,-5094,-3685,-317,303,-1640,-0.7841796875,-0.621826171875,-0.4498291015625,-9.664634146341465,9.237804878048781,-50.00000000000001,1565282323785
-6431,-5085,-3460,9,-32,-1538,-0.7850341796875,-0.6207275390625,-0.42236328125,0.27439024390243905,-0.9756097560975611,-46.89024390243903,1565282323791
-6417,-5058,-3489,77,-106,-1166,-0.7833251953125,-0.617431640625,-0.4259033203125,2.347560975609756,-3.231707317073171,-35.54878048780488,1565282323869
-6462,-4833,-3699,573,-139,-72,-0.788818359375,-0.5899658203125,-0.4515380859375,17.469512195121954,-4.237804878048781,-2.1951219512195124,1565282323877
-6460,-4792,-3666,622,-179,333,-0.78857421875,-0.5849609375,-0.447509765625,18.963414634146343,-5.457317073170732,10.152439024390246,1565282323884
-6435,-4942,-3602,444,-543,611,-0.7855224609375,-0.603271484375,-0.439697265625,13.536585365853659,-16.554878048780488,18.628048780487806,1565282323893
-6410,-4877,-3312,471,-613,473,-0.782470703125,-0.5953369140625,-0.404296875,14.359756097560977,-18.689024390243905,14.420731707317074,1565282323905
-6122,-4556,-3282,484,-438,828,-0.747314453125,-0.55615234375,-0.400634765625,14.756097560975611,-13.353658536585368,25.243902439024392,1565282323974
-5819,-4296,-3030,359,-1379,837,-0.7103271484375,-0.5244140625,-0.369873046875,10.945121951219512,-42.04268292682927,25.51829268292683,1565282323982
-5763,-4270,-3001,306,-1212,496,-0.7034912109375,-0.521240234375,-0.3663330078125,9.329268292682928,-36.951219512195124,15.121951219512196,1565282323988
-5965,-4241,-2988,-8,-1541,400,-0.7281494140625,-0.5177001953125,-0.36474609375,-0.24390243902439027,-46.98170731707317,12.195121951219512,1565282323995
-5632,-4465,-3194,-69,-1593,213,-0.6875,-0.5450439453125,-0.389892578125,-2.103658536585366,-48.56707317073171,6.4939024390243905,1565282324009
-5608,-4452,-3165,58,-1651,136,-0.6845703125,-0.54345703125,-0.3863525390625,1.7682926829268295,-50.335365853658544,4.146341463414634,1565282324079
-5693,-4429,-3105,-593,-1261,90,-0.6949462890625,-0.5406494140625,-0.3790283203125,-18.07926829268293,-38.44512195121951,2.7439024390243905,1565282324087
-5749,-4266,-3102,-460,-1360,59,-0.7017822265625,-0.520751953125,-0.378662109375,-14.02439024390244,-41.463414634146346,1.7987804878048783,1565282324094
-5539,-4330,-3091,-770,-1024,46,-0.6761474609375,-0.528564453125,-0.3773193359375,-23.475609756097562,-31.219512195121954,1.402439024390244,1565282324104
-5588,-4650,-3080,-807,-958,34,-0.68212890625,-0.567626953125,-0.3759765625,-24.603658536585368,-29.207317073170735,1.0365853658536586,1565282324110
-5893,-4511,-2814,-831,-905,20,-0.7193603515625,-0.5506591796875,-0.343505859375,-25.335365853658537,-27.59146341463415,0.6097560975609757,1565282324184
-7030,-5694,-2774,-1019,-309,-493,-0.858154296875,-0.695068359375,-0.338623046875,-31.06707317073171,-9.420731707317074,-15.03048780487805,1565282324192
-7576,-6258,-2909,-1371,-326,-449,-0.9248046875,-0.763916015625,-0.3551025390625,-41.79878048780488,-9.939024390243903,-13.689024390243903,1565282324204
-7708,-6197,-2940,-764,-776,-209,-0.94091796875,-0.7564697265625,-0.35888671875,-23.29268292682927,-23.658536585365855,-6.371951219512195,1565282324224
-7432,-5808,-2734,-774,-1093,-381,-0.9072265625,-0.708984375,-0.333740234375,-23.59756097560976,-33.32317073170732,-11.615853658536587,1565282324238
-7263,-5977,-2888,-435,-922,-529,-0.8865966796875,-0.7296142578125,-0.3525390625,-13.26219512195122,-28.10975609756098,-16.128048780487806,1565282324288
-7458,-5574,-1957,12,-1608,-413,-0.910400390625,-0.680419921875,-0.2388916015625,0.3658536585365854,-49.024390243902445,-12.591463414634147,1565282324295
-7148,-5742,-2130,100,-1500,-631,-0.87255859375,-0.700927734375,-0.260009765625,3.048780487804878,-45.73170731707317,-19.23780487804878,1565282324303
-6889,-5493,-1720,-69,-2080,-625,-0.8409423828125,-0.6705322265625,-0.2099609375,-2.103658536585366,-63.41463414634147,-19.05487804878049,1565282324309
-6967,-5075,-1903,317,-1972,-385,-0.8504638671875,-0.6195068359375,-0.2322998046875,9.664634146341465,-60.1219512195122,-11.737804878048781,1565282324315
-6761,-5161,-1842,358,-2359,-385,-0.8253173828125,-0.6300048828125,-0.224853515625,10.914634146341465,-71.92073170731707,-11.737804878048781,1565282324394
-5991,-4574,-923,-282,-2308,-1078,-0.7313232421875,-0.558349609375,-0.1126708984375,-8.597560975609756,-70.3658536585366,-32.86585365853659,1565282324400
-5834,-4899,-1083,-303,-2016,-1116,-0.712158203125,-0.5980224609375,-0.1322021484375,-9.237804878048781,-61.463414634146346,-34.024390243902445,1565282324408
-6178,-4950,-742,-291,-2018,-1126,-0.754150390625,-0.604248046875,-0.090576171875,-8.871951219512196,-61.524390243902445,-34.32926829268293,1565282324415
-6051,-4986,-839,4,-2040,-1109,-0.7386474609375,-0.608642578125,-0.1024169921875,0.12195121951219513,-62.19512195121952,-33.8109756097561,1565282324421
-6118,-4992,-772,101,-2336,-1089,-0.746826171875,-0.609375,-0.09423828125,3.079268292682927,-71.21951219512195,-33.201219512195124,1565282324499
-6401,-4565,-283,248,-2568,-560,-0.7813720703125,-0.5572509765625,-0.0345458984375,7.560975609756098,-78.29268292682927,-17.073170731707318,1565282324506
-6105,-4544,2,588,-2577,-206,-0.7452392578125,-0.5546875,2.44140625E-4,17.926829268292686,-78.56707317073172,-6.2804878048780495,1565282324513
-6079,-4527,29,613,-2298,-168,-0.7420654296875,-0.5526123046875,0.0035400390625,18.689024390243905,-70.0609756097561,-5.121951219512195,1565282324530
-6057,-4502,54,630,-2271,-133,-0.7393798828125,-0.549560546875,0.006591796875,19.207317073170735,-69.23780487804879,-4.0548780487804885,1565282324539
-6249,-4685,103,637,-2244,-353,-0.7628173828125,-0.5718994140625,0.0125732421875,19.420731707317074,-68.41463414634147,-10.76219512195122,1565282324603
-5991,-4278,274,132,-2138,51,-0.7313232421875,-0.522216796875,0.033447265625,4.024390243902439,-65.1829268292683,1.5548780487804879,1565282324608
-5972,-4294,322,334,-2069,51,-0.72900390625,-0.524169921875,0.039306640625,10.182926829268293,-63.07926829268293,1.5548780487804879,1565282324612
-5930,-4350,148,258,-1696,41,-0.723876953125,-0.531005859375,0.01806640625,7.865853658536586,-51.707317073170735,1.25,1565282324618
-5890,-4631,181,-21,-1905,24,-0.718994140625,-0.5653076171875,0.0220947265625,-0.6402439024390244,-58.07926829268293,0.7317073170731708,1565282324623
-5582,-4652,199,-38,-1859,-264,-0.681396484375,-0.56787109375,0.0242919921875,-1.1585365853658538,-56.676829268292686,-8.048780487804878,1565282324710
-5322,-4719,129,-306,-1052,-812,-0.649658203125,-0.5760498046875,0.0157470703125,-9.329268292682928,-32.07317073170732,-24.75609756097561,1565282324720
-5335,-4487,375,-354,-686,-861,-0.6512451171875,-0.5477294921875,0.0457763671875,-10.792682926829269,-20.914634146341466,-26.250000000000004,1565282324727
-5376,-4552,370,-179,-483,-667,-0.65625,-0.5556640625,0.045166015625,-5.457317073170732,-14.725609756097562,-20.335365853658537,1565282324741
-5658,-4595,370,-208,-390,-683,-0.690673828125,-0.5609130859375,0.045166015625,-6.341463414634147,-11.890243902439025,-20.823170731707318,1565282324749
-5692,-4900,365,-234,-553,-694,-0.69482421875,-0.59814453125,0.0445556640625,-7.134146341463415,-16.85975609756098,-21.158536585365855,1565282324814
-5627,-5210,306,-223,112,-654,-0.6868896484375,-0.635986328125,0.037353515625,-6.798780487804879,3.414634146341464,-19.939024390243905,1565282324820
-5621,-5228,295,-218,-122,-663,-0.6861572265625,-0.63818359375,0.0360107421875,-6.646341463414635,-3.7195121951219514,-20.213414634146343,1565282324825
-5616,-5244,271,-220,-105,-682,-0.685546875,-0.64013671875,0.0330810546875,-6.707317073170732,-3.2012195121951224,-20.79268292682927,1565282324830
-5594,-4997,263,-226,-92,-739,-0.682861328125,-0.6099853515625,0.0321044921875,-6.890243902439025,-2.804878048780488,-22.53048780487805,1565282324838
-5567,-5237,-17,-220,-106,-763,-0.6795654296875,-0.6392822265625,-0.0020751953125,-6.707317073170732,-3.231707317073171,-23.262195121951223,1565282324919
-6167,-5570,-53,-141,-162,-1141,-0.7528076171875,-0.679931640625,-0.0064697265625,-4.298780487804878,-4.939024390243903,-34.78658536585366,1565282324927
-6189,-5601,-47,-533,39,-1376,-0.7554931640625,-0.6837158203125,-0.0057373046875,-16.25,1.1890243902439026,-41.951219512195124,1565282324942
-6079,-5917,274,-639,-44,-1243,-0.7420654296875,-0.7222900390625,0.033447265625,-19.481707317073173,-1.3414634146341464,-37.896341463414636,1565282324954
-6100,-5902,305,-621,-54,-1165,-0.74462890625,-0.720458984375,0.0372314453125,-18.932926829268293,-1.6463414634146343,-35.518292682926834,1565282324963
-5937,-5356,115,-188,-292,-1135,-0.7247314453125,-0.65380859375,0.0140380859375,-5.731707317073171,-8.902439024390244,-34.60365853658537,1565282325023
-5546,-5663,-854,-923,831,-1037,-0.677001953125,-0.6912841796875,-0.104248046875,-28.14024390243903,25.335365853658537,-31.615853658536587,1565282325028
-5709,-5699,-657,-1021,701,-745,-0.6968994140625,-0.6956787109375,-0.0802001953125,-31.12804878048781,21.371951219512198,-22.713414634146343,1565282325032
