Generation,Timestamp,AX,AY,AZ,lAX,lAY,lAZ,,Generation,Timestamp,Speed
,,,,,,,,,,,
1068,6:12:41,-0.1699935,2.169213,10.10384,7.284541,-2.024702,5.053079,,0,6:12:50,10.6920001
1069,6:12:41,1.1827718,1.3575538,11.463788,8.423945,-2.8087296,6.0726824,,,,
1070,6:12:41,1.4796618,1.7358493,9.538791,8.53467,-2.7344427,4.4441404,,1,6:12:51,10.83599997
1071,6:12:41,1.211503,1.489239,10.199611,8.173818,-3.0941212,4.6111035,,,,
1072,6:12:41,1.6520497,0.74701375,9.361614,8.099383,-4.017358,4.3001795,,2,6:12:52,10.11599979
1073,6:12:41,0.80687064,1.2498114,9.047964,7.2998033,-3.6780236,3.5282912,,,,
1074,6:12:41,1.0702409,0.8834874,9.340066,7.3991637,-4.204919,4.2015314,,3,6:12:53,9.179999828
1075,6:12:42,1.0271438,2.0542877,9.63935,7.4678,-3.292743,4.397882,,,,
1076,6:12:42,1.2857256,2.116539,8.772623,7.4445066,-2.7063541,3.6591573,,4,6:12:54,7.092000103
1077,6:12:42,1.0941836,2.0878077,10.824516,7.530308,-3.268832,5.440091,,,,
1078,6:12:42,1.3455825,2.1332989,10.017646,7.7125244,-3.1054165,5.082536,,5,6:12:55,6.047999811
1079,6:12:42,1.0151725,2.892284,9.581888,7.426337,-2.5447466,4.4390936,,,,
1080,6:12:42,0.59378016,1.3096683,9.98652,6.993575,-4.3548284,4.878028,,6,6:12:56,5.867999983
1081,6:12:42,0.6344828,1.515576,9.929058,6.869832,-4.311463,4.991126,,,,
1082,6:12:42,0.9864412,2.3631492,9.237112,7.212884,-3.4082456,4.2973557,,7,6:12:57,6.803999949
1083,6:12:42,0.5123748,2.1811843,9.833286,6.8325233,-3.6886895,4.8571424,,,,
1084,6:12:42,0.64166564,2.2434354,9.763853,6.549039,-3.676805,5.3414955,,8,6:12:58,8.207999897
1085,6:12:43,1.010384,1.5347302,9.775824,6.8423243,-4.4638386,4.8518314,,,,
1086,6:12:43,0.38068968,1.8316202,10.24989,6.120989,-4.3941746,5.370349,,9,6:12:59,8.856000137
1087,6:12:43,0.7134939,1.9920366,9.335278,6.377387,-4.363929,4.488204,,,,
1088,6:12:43,0.47885495,1.1731946,9.974549,5.936141,-5.3985324,4.8933077,,10,6:13:00,7.812000275
1089,6:12:43,0.62251145,2.013585,9.668081,5.989229,-4.683182,4.919618,,,,
1090,6:12:43,1.4054393,1.7693691,9.562734,6.419491,-4.706545,4.637802,,11,6:13:01,5.867999983
1091,6:12:43,1.1157321,1.7478206,10.099051,6.0855665,-5.151604,5.3112435,,,,
1092,6:12:43,0.8044763,1.3048798,9.727939,5.552507,-5.7515764,5.6089706,,12,6:13:02,6.443999863
1093,6:12:43,0.27055305,1.5395187,9.25866,4.8014984,-5.797237,4.8270636,,,,
1094,6:12:43,0.11971374,1.3312168,10.659311,4.5103884,-6.092497,6.520191,,13,6:13:03,7.379999828
1095,6:12:44,-0.09577099,2.205127,10.099051,4.351493,-5.5464272,5.7785454,,,,
1096,6:12:44,0.038308397,1.6759924,10.07032,4.1820316,-6.314102,6.021413,,14,6:13:04,6.552000189
1097,6:12:44,0.08619389,2.0806248,8.854029,3.8916233,-5.8727474,4.842477,,,,
1098,6:12:44,-0.22266756,2.142876,10.108628,3.5269732,-5.85902,5.807209,,15,6:13:05,2.08799994
1099,6:12:44,-1.0582695,2.6767993,10.537204,2.6010985,-5.50126,6.5867186,,,,
1100,6:12:44,-0.29210153,2.1452703,10.247497,2.9614692,-5.837344,6.125243,,16,6:13:06,3.492000103
1101,6:12:44,0.2777359,1.489239,9.771035,3.1683474,-6.8516884,5.4915247,,,,
1102,6:12:44,0.117319465,2.1309047,10.144543,2.8975787,-6.5808434,5.8687105,,17,6:13:07,4.860000086
1103,6:12:44,0.31125572,2.7677817,9.696813,2.621141,-5.8118196,5.793596,,,,
1104,6:12:44,0.49082634,1.8459859,9.3831625,2.556571,-6.666133,5.498952,,18,6:13:08,6.732000017
1105,6:12:45,0.062251143,2.9760835,9.3831625,1.9696007,-5.927388,5.566279,,,,
1106,6:12:45,0.16520496,1.9896424,10.805362,1.9953331,-6.794089,7.084758,,19,6:13:09,7.668000412
1107,6:12:45,0.21787901,2.0686533,9.253872,1.6494148,-6.8007746,5.950698,,,,
1108,6:12:45,0.3519584,2.3535721,10.522838,1.6673081,-6.6756654,6.8469024,,20,6:13:10,8.820000172
1109,6:12:45,0.14844504,3.354379,9.170073,1.54754,-6.0195184,5.843784,,,,
1110,6:12:45,0.016759925,2.7390504,9.047964,1.1998165,-6.3716702,5.807782,,21,6:13:11,10.54800024
1111,6:12:45,-0.2657645,2.971295,10.549175,0.74797565,-6.2091613,7.353175,,,,
1112,6:12:45,-0.34956414,3.8475995,9.438231,0.60557145,-5.2375245,6.364916,,22,6:13:12,12.09599962
1113,6:12:45,0.5411061,4.0199876,8.729526,1.072964,-5.4620914,5.603976,,,,
1114,6:12:45,1.1468576,3.1867797,10.446221,1.364566,-5.8239822,6.917245,,23,6:13:13,12.52800007
1115,6:12:46,0.339987,3.7159145,9.711179,0.5017613,-5.283924,6.2710037,,,,
1116,6:12:46,0.33519846,3.4381785,8.365596,0.36203688,-5.930002,5.1563277,,24,6:13:14,14.47199993
1117,6:12:46,0.2561874,3.380716,9.462174,-0.035277035,-5.741164,6.24129,,,,
1118,6:12:46,0.023942748,3.3352249,9.818921,-0.3781952,-5.651239,6.1063504,,25,6:13:15,17.17199993
1119,6:12:46,0.7877164,2.597788,9.852441,0.11722982,-6.353724,5.9475226,,,,
1120,6:12:46,0.6943397,3.371139,9.842864,-0.11932816,-5.480785,6.1110473,,26,6:13:16,20.7
1121,6:12:46,1.1803775,3.7422516,8.346442,0.24479027,-5.4613004,4.7403975,,,,
1122,6:12:46,0.8571504,3.8045027,10.216371,0.12751465,-5.1702085,6.313014,,27,6:13:17,20.55600014
1123,6:12:46,1.0271438,2.928198,9.624985,0.0502221,-5.787238,5.6608887,,,,
1124,6:12:46,0.46927786,2.9641123,10.410307,-0.38960657,-5.9750695,6.3173018,,28,6:13:18,18.64799938
1125,6:12:47,0.65842557,3.634509,9.043176,-0.33408928,-5.3034945,5.2932005,,,,
1126,6:12:47,0.016759925,3.15326,10.415095,-0.91109574,-5.637891,6.5399446,,29,6:13:19,16.2
1127,6:12:47,0.17957062,3.3232534,9.368797,-0.59017146,-5.6334352,5.3679867,,,,
1128,6:12:47,-0.07901107,3.1245286,10.439038,-0.55297744,-6.0128813,6.8327584,,30,6:13:20,12.02399969
1129,6:12:47,0.102953814,3.7638,8.755863,-0.563506,-5.2879686,5.1532273,,,,
1130,6:12:47,-0.06464542,2.9736893,9.8787775,-0.6736259,-6.182643,6.1231217,,31,6:13:21,5.903999949
1131,6:12:47,-0.06943397,2.7773588,9.787795,-0.71456647,-6.226188,5.959304,,,,
1132,6:12:47,0.3519584,1.7190893,10.695226,-0.41714758,-7.1008863,6.6580834,,32,6:13:22,8.279999828
1133,6:12:47,-0.13168511,1.9537282,9.498088,-0.8387526,-7.258811,6.042792,,,,
1134,6:12:47,0.24182175,2.3727264,8.341654,-0.7575581,-6.92622,5.3042474,,33,6:13:23,13.85999966
1135,6:12:48,0.4956149,2.2506182,10.56354,-0.25930196,-6.9598184,7.2161627,,,,
1136,6:12:48,0.86193895,1.6999351,10.099051,-0.008798641,-7.2552834,6.1707935,,34,6:13:24,13.17600031
1137,6:12:48,0.65842557,1.376708,8.844451,-0.31993493,-7.812926,5.752396,,,,
1138,6:12:48,0.076616794,2.073442,9.545974,-0.7802011,-7.11194,5.9759297,,35,6:13:25,11.73599997
1139,6:12:48,-0.3423813,1.673598,9.883567,-0.99100906,-7.3707647,5.905611,,,,
1140,6:12:48,-0.23463893,1.1396748,10.553964,-0.956453,-7.7382345,6.194448,,36,6:13:26,9.756000137
1141,6:12:48,0.49082634,1.0654523,9.967366,-0.29684395,-7.980033,6.7445817,,,,
1142,6:12:48,-0.1987248,2.142876,9.225141,-0.8703408,-7.102536,6.0414195,,37,6:13:27,10.33199959
1143,6:12:48,0.062251143,1.5131817,10.685649,-0.701233,-7.3784356,6.3874025,,,,
1144,6:12:48,0.22506183,1.3527653,9.897932,-0.5813879,-7.8689537,7.3048105,,38,6:13:28,12.16800041
1145,6:12:49,-0.2083019,1.7095122,9.325701,-0.6923171,-7.4262276,5.763096,,,,
1146,6:12:49,-0.47885495,1.7789462,9.909904,-1.0146968,-7.3294954,6.425532,,39,6:13:29,12.99599962
1147,6:12:49,0.1987248,1.8052832,11.059155,-0.22907118,-7.24367,7.6480346,,,,
1148,6:12:49,0.44294083,1.5299416,9.253872,-0.07348655,-7.664674,5.60204,,40,6:13:30,10.76400003
1149,6:12:49,0.24182175,1.3192455,11.2794285,-0.2777592,-7.6145067,7.061202,,,,
1150,6:12:49,0.13886794,2.1548474,9.574705,-0.34973204,-6.9791474,5.9215474,,41,6:13:31,9.971999931
1151,6:12:49,0.77574503,1.3551595,9.586677,0.18143812,-7.7263803,6.011,,,,
1152,6:12:49,0.071828246,1.541913,9.979338,-0.338641,-7.483781,6.265266,,42,6:13:32,8.568000412
1153,6:12:49,0.083799616,1.5179702,10.015251,-0.27025175,-7.6767488,6.5889597,,,,
1154,6:12:49,-0.20111908,1.7789462,9.727939,-0.50087196,-7.543846,6.0290365,,43,6:13:33,10.18799973
1155,6:12:50,-0.06943397,1.8507744,10.314536,-0.28713736,-7.3842225,6.6032243,,,,
1156,6:12:50,-0.05027977,1.4317763,9.821315,-0.50893724,-7.6059227,6.770055,,44,6:13:34,9.287999725
1157,6:12:50,-0.24182175,1.6257126,8.995291,-0.5234159,-7.4948654,5.395274,,,,
1158,6:12:50,-0.26337022,1.5371244,11.12859,-0.5457605,-7.620935,7.404181,,45,6:13:35,10.58400021
1159,6:12:50,-0.1987248,1.6879637,9.648928,-0.6148993,-7.4400187,6.4055634,,,,
1160,6:12:50,-0.29689008,1.4581133,9.826104,-0.65314543,-7.6364565,6.3816576,,46,6:13:36,10.07999983
1161,6:12:50,-0.21548474,2.004008,9.273026,-0.580731,-7.197357,5.7129865,,,,
1162,6:12:50,-0.30646718,0.76137936,11.229149,-0.73900574,-8.304504,7.605007,,47,6:13:37,7.704000378
1163,6:12:50,-0.5602603,2.6432793,8.394327,-0.97115725,-6.5257263,4.793415,,,,
1164,6:12:50,0.06464542,0.8140534,11.724764,-0.48781127,-8.259386,8.032615,,48,6:13:38,7.2
1165,6:12:51,0.44294083,1.5706443,8.166871,-0.21213424,-7.519246,5.031302,,,,
1166,6:12:51,-0.071828246,1.2091088,10.08708,-0.46524662,-8.11156,6.759141,,49,6:13:39,6.588000154
1167,6:12:51,-0.61293435,2.5211713,8.9976845,-0.90233123,-6.938895,5.673364,,,,
1168,6:12:51,-0.105348095,1.4916332,9.809344,-0.5545417,-7.5141144,6.007477,,50,6:13:40,5.688000154
1169,6:12:51,-0.27055305,1.6951466,10.860431,-0.5692919,-7.5153475,6.8991637,,,,
1170,6:12:51,0.52913475,1.2689656,9.356826,-0.08179569,-7.6052523,5.2561426,,51,6:13:41,6.228000069
1171,6:12:51,-0.14844504,1.6352897,9.170073,-0.69234484,-7.6323266,5.8235145,,,,
1172,6:12:51,0.043096945,0.8643332,10.79818,-0.5988416,-7.7943254,6.2548795,,52,6:13:42,6.911999846
1173,6:12:51,-0.2681588,1.7669748,9.452597,-0.79158133,-7.3760405,5.712686,,,,
1174,6:12:51,0.33759275,1.201926,10.082292,-0.28110176,-7.738622,5.951022,,53,6:13:43,4.607999897
1175,6:12:52,-0.09577099,1.9154198,10.032011,-0.62680185,-7.2212515,6.129527,,,,
1176,6:12:52,-0.019154198,1.1803775,10.474953,-0.72620237,-7.497079,6.3297324,,54,6:13:44,4.247999811
1177,6:12:52,0.28252444,1.2474172,10.084685,-0.38471088,-7.7988195,6.101773,,,,
1178,6:12:52,-0.08858817,1.4772675,9.395134,-0.76773596,-7.6817765,5.792595,,55,6:13:45,4.356000137
1179,6:12:52,0.36632404,1.089395,9.732727,-0.28200752,-7.8747015,5.5695486,,,,
1180,6:12:52,-0.05506832,1.1300977,11.025636,-0.6246456,-7.755567,7.144821,,56,6:13:46,6.371999931
1181,6:12:52,0.3232271,1.0199611,9.071907,-0.42538643,-7.7480407,4.698636,,,,
1182,6:12:52,-0.057462595,1.0870007,10.510866,-0.66803896,-8.040027,6.838607,,57,6:13:47,5.688000154
1183,6:12:52,0.409421,1.1708003,9.440625,-0.4412952,-7.662767,5.5639744,,,,
1184,6:12:53,0.36632404,0.888276,10.343267,-0.3916121,-8.002745,6.0041103,,58,6:13:48,7.920000172
1185,6:12:53,-0.25858167,1.3407938,10.371999,-1.0553666,-7.5419593,6.1352844,,,,
1186,6:12:53,0.38308397,0.6608198,10.005674,-0.44997066,-8.260695,5.9862123,,59,6:13:49,3.239999914
1187,6:12:53,-0.27055305,1.4940275,9.000079,-1.0199533,-7.721328,5.4518213,,,,
1188,6:12:53,0.105348095,1.3719195,10.460587,-0.73192513,-7.6291227,6.544863,,60,6:13:50,0
1189,6:12:53,-0.1340794,0.9385557,10.211582,-0.99010813,-8.024261,6.4561043,,,,
1190,6:12:53,0.44294083,0.84039044,10.292988,-0.41991276,-7.9463816,6.0520873,,61,6:13:51,3.92400012
1191,6:12:53,0.08619389,1.5059988,9.60583,-0.78086215,-7.577597,5.9737825,,,,
1192,6:12:53,0.5913859,0.49800915,10.984933,-0.42450342,-8.224681,6.8159614,,62,6:13:52,4.860000086
1193,6:12:53,-0.6105401,1.9992194,9.498088,-1.2502731,-7.2867365,6.6639466,,,,
1194,6:12:54,0.13647367,1.8292259,9.471751,-0.55241376,-6.8678145,5.4483137,,63,6:13:53,0
1195,6:12:54,0.04070267,1.3216397,10.302565,-0.7669425,-7.82525,6.760268,,,,
1196,6:12:54,0.16759923,1.489239,8.854029,-0.68965614,-7.4428024,4.931182,,64,6:13:54,0
1197,6:12:54,-0.102953814,1.3216397,11.159715,-0.70814776,-7.8890395,7.239661,,,,
1198,6:12:54,-0.11013664,1.4437478,9.725544,-1.039552,-7.4252152,5.6656046,,65,6:13:55,7.056000137
1199,6:12:54,0.30886146,1.0079896,10.082292,-0.5787387,-7.894456,5.991967,,,,
1200,6:12:54,-0.11253092,1.2737542,9.785401,-0.9183342,-7.838968,5.8125963,,66,6:13:56,7.812000275
1201,6:12:54,0.090982445,1.1253091,10.26665,-0.88970983,-7.666697,6.024246,,,,
1202,6:12:54,0.019154198,1.515576,9.471751,-0.79861623,-7.45078,5.652215,,67,6:13:57,8.459999657
1203,6:12:54,-0.4285752,1.5538844,11.126195,-1.1350622,-7.438938,7.035863,,,,
1204,6:12:55,0.26337022,1.9010541,9.074302,-0.7525994,-7.163105,5.7560377,,68,6:13:58,10.47600031
1205,6:12:55,0.40223816,2.6839821,10.302565,-0.320893,-6.52012,6.5940666,,,,
1206,6:12:55,0.19393626,2.7773588,8.080677,-0.9360179,-6.227208,4.851163,,69,6:13:59,0
1207,6:12:55,0.08619389,2.2099156,9.984126,-0.64362484,-6.731824,6.1235495,,,,
1208,6:12:55,-0.2681588,1.8531687,10.3743925,-0.87382096,-7.3398614,6.790773,,70,6:14:00,0
1209,6:12:55,0,2.0423164,9.385557,-0.6056949,-6.905126,5.5191407,,,,
1210,6:12:55,-0.083799616,2.2697725,9.842864,-0.6608149,-6.8353677,6.0199547,,71,6:14:01,0
1211,6:12:55,0.019154198,2.3535721,8.791777,-0.6208881,-6.715697,5.0874906,,,,
1212,6:12:55,0.23463893,1.201926,10.515655,-0.5233469,-7.5967965,6.265321,,72,6:14:02,0
1213,6:12:55,-0.33519846,1.8076775,10.204399,-1.0227132,-7.341896,6.644372,,,,
1214,6:12:56,0.007182824,1.5610672,9.670476,-0.64683974,-7.3924484,5.655065,,73,6:14:03,0
1215,6:12:56,-0.1699935,1.6089526,10.182851,-0.80564946,-7.5804963,6.7918634,,,,
1216,6:12:56,0.18914771,1.8507744,9.177256,-0.54136604,-6.9532,5.089357,,74,6:14:04,1.727999961
1217,6:12:56,-0.31843856,0.76137936,11.942643,-0.7949902,-8.218344,8.128509,,,,
1218,6:12:56,-0.30646718,2.0494993,9.481328,-0.77968067,-6.8853636,5.567905,,75,6:14:05,0
1219,6:12:56,-0.24182175,1.0774237,10.436644,-0.53397316,-8.062903,5.9252677,,,,
1220,6:12:56,-0.19154198,1.9178141,9.90272,-0.73013604,-7.1659827,6.441594,,76,6:14:06,3.564000034
1221,6:12:56,-0.07901107,1.5203645,9.574705,-0.6072551,-7.490715,6.080653,,,,
1222,6:12:56,-0.031125572,0.85236186,10.879584,-0.5612525,-8.171176,7.1884108,,77,6:14:07,0
1223,6:12:56,-0.3040729,2.1644244,8.945011,-0.6891118,-6.8965235,5.0008335,,,,
1224,6:12:57,-0.52913475,1.2210802,10.692831,-0.8438389,-7.6906557,6.8934126,,78,6:14:08,4.535999966
1225,6:12:57,-0.10774237,1.8938714,9.265843,-0.5916676,-7.0796328,5.4788523,,,,
1226,6:12:57,-0.05027977,0.7685622,10.7048025,-0.6616574,-8.107855,6.749035,,79,6:14:09,6.732000017
1227,6:12:57,-0.21787901,1.2306572,9.768641,-0.8253833,-7.756707,5.87115,,,,
1228,6:12:57,-0.12450229,0.7134939,10.115811,-0.6059986,-8.314335,6.423846,,80,6:14:10,7.415999794
1229,6:12:57,-0.4644893,1.185166,8.526012,-0.8705411,-7.9194803,4.7203383,,,,
1230,6:12:57,-0.41181526,0.8547561,11.595473,-0.76067054,-8.210972,7.2447867,,81,6:14:11,11.23199959
1231,6:12:57,-0.3232271,1.3048798,8.777411,-0.8178321,-7.7559233,5.1463733,,,,
1232,6:12:57,-0.24421602,0.08858817,11.461393,-0.7324034,-8.623491,7.1438546,,82,6:14:12,11.91599979
1233,6:12:57,-0.7039168,1.4198049,9.684841,-1.0717491,-7.8295784,5.932717,,,,
1234,6:12:58,-0.44772938,0.91700727,9.826104,-0.88058776,-8.035258,5.5801187,,83,6:14:13,13.75199976
1235,6:12:58,-0.04070267,0.7589851,10.369604,-0.7576055,-8.246242,6.32299,,,,
1236,6:12:58,0.047885496,0.5506832,11.006481,-0.80352,-8.2498045,7.0355277,,84,6:14:14,13.32000017
1237,6:12:58,-0.076616794,1.0917894,9.464568,-0.94751155,-7.9906836,5.7009964,,,,
1238,6:12:58,0.16041641,1.063058,10.216371,-0.7684654,-7.916845,6.421031,,85,6:14:15,13.21200027
1239,6:12:58,-0.1987248,1.4245936,10.008069,-1.0585129,-7.7587404,6.466829,,,,
1240,6:12:58,0.14365649,1.3958622,9.330489,-0.8220283,-7.624175,5.5838256,,86,6:14:16,0
1241,6:12:58,0.12450229,1.3120626,10.343267,-0.7949573,-7.717964,6.604917,,,,
1242,6:12:58,0.062251143,1.7358493,9.450203,-0.96544945,-7.152794,5.6445327,,87,6:14:17,0.720000011
1243,6:12:58,0.11971374,1.4652961,10.242707,-0.812699,-7.635859,6.4570823,,,,
1244,6:12:59,0.38308397,1.7981004,8.976136,-0.7242826,-7.071749,5.339509,,88,6:14:18,15.22800007
1245,6:12:59,0.27294734,0.5913859,10.91071,-0.88795936,-8.183251,6.8117995,,,,
1246,6:12:59,-0.102953814,1.3168511,9.780613,-1.1526268,-7.7371383,5.8405995,,89,6:14:19,13.6079999
1247,6:12:59,0.11013664,1.9680939,9.852441,-0.75998086,-7.0047584,5.904849,,,,
1248,6:12:59,0.08140534,1.7238779,9.603436,-0.78707206,-7.216319,5.615696,,90,6:14:20,14.11200027
1249,6:12:59,0.09577099,0.7829279,11.140561,-0.78086174,-8.229498,7.014529,,,,
1250,6:12:59,-0.6656084,2.1189332,8.81572,-1.5940212,-7.0169854,5.2528267,,91,6:14:21,15.69600048
1251,6:12:59,-0.6464542,2.4445546,9.277815,-1.5281197,-6.40448,5.139212,,,,
1252,6:12:59,-0.76137936,1.1205206,11.236332,-1.6283119,-7.7399435,7.4997277,,92,6:14:22,14.94000034
1253,6:12:59,0.03351985,1.2306572,11.188446,-1.0142125,-7.488299,6.67954,,,,
1254,6:13:00,0.1699935,1.472479,10.05356,-0.96528226,-7.523459,6.668811,,93,6:14:23,15.44399986
1255,6:13:00,0.50998056,0.5411061,9.70639,-0.8268954,-8.059242,5.31956,,,,
1256,6:13:00,-0.083799616,1.3719195,9.119793,-1.2865144,-7.5096116,5.503563,,94,6:14:24,14.54399986
1257,6:13:00,-0.117319465,1.6041641,9.454991,-1.3058654,-7.137924,5.1279488,,,,
1258,6:13:00,-0.33759275,0.7206767,10.951413,-1.3177869,-8.031149,6.674095,,95,6:14:25,16.12800007
1259,6:13:00,-0.2466103,1.6855695,9.703996,-1.2628064,-7.2063255,5.6610255,,,,
1260,6:13:00,0.2777359,1.2522057,10.326508,-0.63467795,-7.532691,6.0634813,,96,6:14:26,15.40800076
1261,6:13:00,-0.007182824,1.7789462,9.289786,-1.0172517,-7.303141,5.4888744,,,,
1262,6:13:00,-0.08619389,1.2546,10.41749,-0.9713747,-7.368914,5.8537545,,97,6:14:27,14.75999966
1263,6:13:00,-0.17238778,1.4341706,9.732727,-1.0565666,-7.6310043,6.316098,,,,
1264,6:13:01,-0.27055305,1.4652961,10.364816,-1.0416502,-7.2351294,5.645301,,98,6:14:28,12.24000034
1265,6:13:01,-0.08140534,1.3671309,9.653716,-0.8545291,-7.5844483,5.838851,,,,
1266,6:13:01,-0.45251793,1.2665714,9.352037,-1.1570005,-7.6492147,5.155518,,99,6:14:29,10.9079999
1267,6:13:01,-0.5913859,1.7286664,9.557945,-1.1289189,-7.3079805,5.172795,,,,
1268,6:13:01,-0.098165266,1.8292259,9.591465,-0.6893021,-7.032735,5.49047,,100,6:14:30,11.77199993
1269,6:13:01,-0.14605077,1.6400782,9.270632,-0.5519455,-7.2923226,5.294152,,,,
1270,6:13:01,0.7446195,1.5562786,10.920287,0.25390506,-7.324145,6.6567545,,101,6:14:31,10.33199959
1271,6:13:01,0.81165916,2.7725701,9.881172,0.58581924,-6.080821,5.756864,,,,
1272,6:13:01,0.56744313,1.594587,9.325701,0.057438422,-7.071688,4.8506484,,102,6:14:32,2.592000103
1273,6:13:01,0.6440599,0.818842,10.091868,0.1090467,-7.9030366,5.8901854,,,,
1274,6:13:02,0.10055954,1.3551595,9.110215,-0.26214582,-7.4480143,4.5404487,,103,6:14:33,5.867999983
1275,6:13:02,0.07901107,1.8316202,9.663293,-0.11991601,-7.070094,5.530176,,,,
1276,6:13:02,-0.016759925,1.5514901,10.362421,0.086962834,-7.039628,5.708667,,104,6:14:34,7.092000103
1277,6:13:02,-0.16041641,0.6560313,10.776631,0.043589793,-8.041719,6.2770257,,,,
1278,6:13:02,0.10774237,1.6664152,9.785401,0.37425467,-7.191522,5.5223985,,105,6:14:35,7.056000137
1279,6:13:02,-0.014365649,0.7853221,10.642551,0.3510509,-7.7115088,5.8927336,,,,
1280,6:13:02,0.15802214,0.51716334,9.792584,0.50420356,-8.132293,4.8176804,,106,6:14:36,8.064000034
1281,6:13:02,-0.13168511,0.6153286,10.125388,0.25632688,-8.151552,5.6784754,,,,
1282,6:13:02,-0.21069619,1.3096683,8.5882635,0.30880475,-7.5020227,4.1028347,,107,6:14:37,10.44000034
1283,6:13:02,-0.21548474,0.5506832,10.269045,0.43032807,-8.065165,5.4633064,,,,
1284,6:13:03,0.17957062,1.2210802,9.974549,0.89669895,-7.624044,5.7378745,,108,6:14:38,13.21200027
1285,6:13:03,0.27055305,1.2234744,10.472558,1.0671368,-7.2143235,5.9565306,,,,
1286,6:13:03,0.6081458,1.7430321,9.289786,1.6017234,-7.3073587,5.5678864,,109,6:14:39,10.33199959
1287,6:13:03,-0.39266106,0.9194015,11.624205,0.9632963,-7.5074553,6.515864,,,,
1288,6:13:03,0.15802214,2.2266755,10.228342,1.4690564,-6.8449945,6.1920376,,110,6:14:40,10.25999966
1289,6:13:03,-0.06943397,-0.4932206,11.090281,1.421479,-8.959089,6.3420324,,,,
1290,6:13:03,-1.3072741,0.12210801,9.677659,-0.15109873,-8.706847,5.556749,,111,6:14:41,10.87199993
1291,6:13:03,-1.3910737,0.89545876,8.504464,-0.13326856,-7.758616,4.013235,,,,
1292,6:13:03,-0.90024734,-0.38308397,10.826911,0.56370723,-9.153046,6.531401,,112,6:14:42,10.76400003
1293,6:13:03,0.16281068,0.6703969,10.008069,1.7436368,-8.175025,5.889735,,,,
1294,6:13:04,0.7637737,1.185166,9.909904,2.4275103,-7.818263,5.907387,,113,6:14:43,11.05199976
1295,6:13:04,0.50998056,1.9992194,9.27542,2.1905637,-6.7587423,5.462556,,,,
1296,6:13:04,-0.5027977,1.1372806,10.577906,1.5310895,-7.8034463,6.438848,,114,6:14:44,8.604000378
1297,6:13:04,0.26337022,2.360755,9.615408,2.2845583,-6.2701817,5.5124416,,,,
1298,6:13:04,0.5650489,0.98404694,11.119012,2.9498854,-7.6700807,7.2751665,,115,6:14:45,2.303999949
1299,6:13:04,0.090982445,1.228263,9.232324,2.4429293,-7.408573,5.407869,,,,
1300,6:13:04,-0.23942748,1.3431882,10.755082,2.3866372,-7.3943343,6.6946745,,116,6:14:46,4.139999914
1301,6:13:04,0.89067024,2.2889266,11.049579,3.469874,-6.5040236,7.2282057,,,,
1302,6:13:04,0.6847626,0.75180227,10.178062,3.5986512,-8.04103,6.427971,,117,6:14:47,4.571999931
1303,6:13:04,0.6249057,1.6185298,8.528407,3.435608,-7.1774435,4.7204165,,,,
1304,6:13:05,0.038308397,0.9505271,9.318518,2.9796426,-7.8423815,5.683223,,118,6:14:48,7.128000069
1305,6:13:05,-0.86193895,1.1492519,10.391152,2.3379025,-7.248889,6.4484863,,,,
1306,6:13:05,-0.5818088,0.3998439,11.284217,2.7817616,-7.782225,7.131475,,119,6:14:49,8.459999657
1307,6:13:05,-0.4860378,1.2546,9.826104,3.0786843,-6.9789095,5.8234353,,,,
1308,6:13:05,-0.102953814,1.0870007,9.917087,3.543471,-7.0396414,5.8207264,,120,6:14:50,8.784000206
1309,6:13:05,-0.014365649,0.90024734,10.946625,3.7110772,-7.2829385,7.150069,,,,
1310,6:13:05,-0.098165266,1.7310607,9.510059,3.8010635,-6.3279634,5.686111,,121,6:14:51,8.892000103
1311,6:13:05,-0.12929083,1.6807809,9.577099,4.02803,-6.5137687,5.7579303,,,,
1312,6:13:05,-0.21787901,1.7430321,9.993703,4.1358695,-5.911716,5.491808,,122,6:14:52,8.964000034
1313,6:13:05,-0.12689656,1.5347302,9.744699,4.2186813,-6.136461,6.2627583,,,,
1314,6:13:06,-0.19633053,1.3479767,9.75667,4.4406166,-6.5811324,6.199009,,123,6:14:53,5.507999897
1315,6:13:06,-0.047885496,1.8771114,9.220352,4.6867075,-5.9430776,5.338109,,,,
1316,6:13:06,-0.23942748,1.759792,9.972155,4.5827146,-5.975124,6.2488437,,124,6:14:54,7.415999794
1317,6:13:06,-0.17957062,1.5083932,10.072714,4.7323394,-6.282526,6.3750906,,,,
1318,6:13:06,-0.38547826,1.6089526,9.737515,4.553035,-5.942378,5.965069,,125,6:14:55,10.58400021
1319,6:13:06,-0.5147691,1.0343267,10.206794,4.465969,-6.383722,6.2774754,,,,
1320,6:13:06,-0.41181526,1.3048798,10.190034,4.7384686,-6.075093,6.3288417,,126,6:14:56,12.38400021
1321,6:13:06,-0.28013015,1.1923488,10.142148,4.9045606,-6.1781335,6.444065,,,,
1322,6:13:06,-0.28013015,1.3120626,9.941029,5.067674,-5.810975,5.7830877,,127,6:14:57,14.25600014
1323,6:13:06,-0.5147691,1.2546,10.204399,4.8802056,-6.1663785,6.4916854,,,,
1324,6:13:07,-0.17478207,1.8076775,9.454991,5.259286,-5.212371,5.656925,,128,6:14:58,16.12800007
1325,6:13:07,-0.47167215,1.3814965,10.587483,5.159993,-5.7716336,6.6596956,,,,
1326,6:13:07,-0.36871833,2.1380875,9.330489,5.291289,-5.027265,5.783908,,129,6:14:59,15.08400021
1327,6:13:07,-0.13168511,2.2170985,10.194822,5.7033644,-4.562999,6.123234,,,,
1328,6:13:07,0.27294734,2.6791935,9.251478,6.2848663,-4.222772,5.513457,,130,6:15:00,13.10400038
1329,6:13:07,-0.47885495,1.8220432,10.276228,5.719479,-4.7518096,6.2013416,,,,
1330,6:13:07,-0.2657645,2.648068,9.529214,5.977608,-4.0500402,6.0897245,,131,6:15:01,9.828000069
1331,6:13:07,0.42618093,2.6744049,9.380769,6.7373934,-3.5786998,5.4443264,,,,
1332,6:13:07,-0.31843856,0.99362403,10.582695,6.1780844,-5.515897,7.4330153,,132,6:15:02,7.776000309
1333,6:13:07,-0.4166038,1.8627458,9.103033,6.0960207,-4.231293,5.26407,,,,
1334,6:13:08,-0.1987248,0.47885495,10.740717,6.447151,-5.5210614,6.7344856,,133,6:15:03,6.228000069
1335,6:13:08,-0.26097596,1.6544439,10.089474,6.5373306,-4.3126736,6.433603,,,,
1336,6:13:08,-0.2777359,1.6568382,9.670476,6.6295342,-4.133888,5.9530153,,134,6:15:04,4.715999794
1337,6:13:08,-0.071828246,1.525153,9.313729,6.8817954,-4.1362176,5.320326,,,,
1338,6:13:08,-0.16759923,1.0774237,10.7048025,7.0455294,-4.376497,6.5335984,,135,6:15:05,4.535999966
1339,6:13:08,-0.44294083,1.3431882,9.787795,6.758376,-4.014514,6.0094776,,,,
1340,6:13:08,-0.50758624,0.2370332,10.132571,6.8202715,-4.8561025,6.044182,,136,6:15:06,4.067999983
1341,6:13:08,-1.1277034,-0.86912173,10.403124,6.329116,-6.0407267,6.367152,,,,
1342,6:13:08,-1.4150164,-1.3671309,10.867614,6.0522842,-6.5970087,7.040273,,137,6:15:07,5.615999794
1343,6:13:08,-0.48124924,0.062251143,9.866806,6.9040093,-5.1823883,5.8609324,,,,
1344,6:13:09,-1.462902,-1.4341706,11.183658,5.9446864,-6.2759166,7.0976553,,138,6:15:08,8.1
1345,6:13:09,-1.2929084,-0.9433443,10.743111,6.01808,-6.2304206,6.9727774,,,,
1346,6:13:09,-0.38547826,-0.36632404,10.783813,6.606566,-6.1985254,7.2448783,,139,6:15:09,12.92399969
1347,6:13:09,0.28013015,4.1516724,7.9154725,7.492563,-1.8865414,4.647497,,,,
1348,6:13:09,0.6703969,4.2139235,8.116591,8.082231,-1.4716343,3.9458694,,140,6:15:10,8.784000206
1349,6:13:09,0.9026416,2.901861,7.798153,8.0178995,-1.6813059,3.6416783,,,,
1350,6:13:09,-0.038308397,2.0590763,11.152532,7.6320724,-2.098403,5.9013352,,141,6:15:11,6.192000103
1351,6:13:09,-0.56265455,2.0399222,10.94423,7.0761743,-1.870643,6.52947,,,,
1352,6:13:09,-0.49082634,1.4940275,8.391933,6.965257,-2.1906846,3.6089451,,142,6:15:12,5.4
1353,6:13:09,-0.00478855,1.5131817,9.390346,7.4853144,-2.768714,4.6319466,,,,
1354,6:13:10,0.31125572,1.2426286,10.745505,7.794097,-2.7229886,5.821123,,143,6:15:13,7.595999622
1355,6:13:10,0.3232271,0.6560313,10.858036,7.8322687,-3.6741996,6.295273,,,,
1356,6:13:10,0.3615355,1.2593886,9.5244255,7.9240885,-3.3730617,5.097687,,144,6:15:14,12.31200027
1357,6:13:10,-0.1987248,1.9585168,9.545974,7.410464,-2.596223,5.0577064,,,,
1358,6:13:10,-0.22506183,1.7909175,10.237919,7.3592224,-2.4617124,5.775201,,145,6:15:15,15.40800076
1359,6:13:10,-0.21309046,1.4174107,9.840469,7.477567,-2.8912954,5.577134,,,,
1360,6:13:10,-0.40463245,1.6041641,10.091868,7.379846,-2.6350465,5.657691,,146,6:15:16,15.73199959
1361,6:13:10,-0.35914123,1.3623424,10.31693,7.345819,-2.6869984,6.119975,,,,
1362,6:13:10,-0.26097596,1.3527653,9.715967,7.5801764,-2.8037937,5.317836,,147,6:15:17,14.50800076
1363,6:13:10,-0.3902668,1.3383996,10.091868,7.4703474,-2.6506577,5.7407255,,,,
1364,6:13:11,-0.5554718,1.7933118,9.77343,7.392624,-2.1892993,5.51882,,148,6:15:18,12.7079999
1365,6:13:11,-0.45730647,1.7190893,10.424672,7.459114,-2.0805743,6.1899643,,,,
1366,6:13:11,0.00478855,2.0375278,9.960183,7.9221587,-1.7081398,5.6050086,,149,6:15:19,10.29599962
1367,6:13:11,0.07422252,1.733455,9.232324,8.023407,-1.9336822,4.7997766,,,,
1368,6:13:11,-0.28970724,1.4940275,10.113417,7.767852,-2.0901809,5.571355,,150,6:15:20,5.97599988
1369,6:13:11,-0.19154198,1.6975409,10.465375,7.8395286,-1.7771327,6.007705,,,,
1370,6:13:11,0.13886794,1.1923488,9.768641,8.16158,-2.13758,5.5231504,,151,6:15:21,7.2
1371,6:13:11,-0.5650489,1.2162915,9.730332,7.7319384,-2.0498047,5.2436543,,,,
1372,6:13:11,-0.59378016,1.8435916,10.321719,7.605939,-1.4192417,6.1126895,,152,6:15:22,6.62400012
1373,6:13:11,-0.102953814,1.4916332,10.5395975,8.117401,-1.3585421,6.136648,,,,
1374,6:13:12,0.03351985,1.297697,9.804555,8.340536,-1.7329136,5.7536373,,153,6:15:23,6.732000017
1375,6:13:12,-0.4764607,1.8100717,9.466963,7.8442373,-1.1217388,5.046685,,,,
1376,6:13:12,-0.33519846,1.89866,9.486116,7.9341483,-0.6073461,5.056076,,154,6:15:24,9.576000309
1377,6:13:12,-0.42378664,1.5562786,10.530021,8.079012,-0.9244364,5.987624,,,,
1378,6:13:12,-0.6177229,1.7550035,9.783007,7.873246,-0.6174532,5.588699,,155,6:15:25,9.576000309
1379,6:13:12,-0.5506832,1.472479,10.822123,8.041808,-0.72553796,6.2613716,,,,
1380,6:13:12,-0.3232271,1.6999351,9.591465,8.158727,-0.44609556,5.4621434,,156,6:15:26,8.784000206
1381,6:13:12,-0.63208854,1.56825,9.794978,7.9508743,-0.3018167,5.1766243,,,,
1382,6:13:12,-0.84278476,1.6568382,9.57231,7.7134027,-0.241395,5.2083464,,157,6:15:27,9.071999931
1383,6:13:12,-0.34716985,1.2258687,10.206794,8.199007,-0.34234554,5.6647506,,,,
1384,6:13:13,-0.3998439,1.4245936,10.405519,8.249458,-0.36267212,6.39235,,158,6:15:28,17.53199959
1385,6:13:13,-0.26097596,1.3264283,9.237112,8.306865,-0.1176187,4.6251473,,,,
1386,6:13:13,-0.63208854,1.0965779,10.745505,8.070245,-0.57551885,6.274953,,159,6:15:29,15.55200062
1387,6:13:13,-0.723071,1.7023294,8.6433325,7.813966,0.31702036,4.308777,,,,
1388,6:13:13,-0.77574503,0.967287,10.568329,7.9266944,-0.38037482,5.951789,,160,6:15:30,15.76800041
1389,6:13:13,-0.8379962,1.3144568,9.917087,7.826982,0.18147293,5.5122824,,,,
1390,6:13:13,-0.600963,1.0151725,10.321719,8.12268,-0.22334728,6.0297832,,161,6:15:31,15.33600082
1391,6:13:13,-1.1133378,1.2929084,9.924269,7.6543694,0.17961493,5.6591845,,,,
1392,6:13:13,-1.1085492,1.2833313,9.397529,7.5175695,0.2519537,5.1578364,,162,6:15:32,15.04799938
1393,6:13:13,-1.0271438,0.5554718,12.031231,7.7145643,-0.23036179,7.231778,,,,
1394,6:13:14,-0.62251145,1.4940275,9.775824,8.097315,0.15402254,5.7054014,,163,6:15:33,14.36400003
1395,6:13:14,-0.7015225,1.0558752,9.026416,7.9000106,0.10441823,4.314215,,,,
1396,6:13:14,-1.3814965,1.0439038,9.905115,7.2349105,-0.2843805,5.493228,,164,6:15:34,15.11999931
1397,6:13:14,-0.45730647,2.4373717,9.064724,8.013205,1.3321879,4.4378805,,,,
1398,6:13:14,-0.29689008,1.0917894,11.528433,8.292855,0.113527164,6.9158125,,165,6:15:35,14.90399952
1399,6:13:14,-0.26097596,1.1157321,10.230737,8.274121,-0.16225748,5.6945324,,,,
1400,6:13:14,-0.52913475,1.8340145,9.301758,7.9652047,0.5381411,4.5852804,,166,6:15:36,14.22000017
1401,6:13:14,-0.96489275,1.4533248,9.4142885,7.513833,0.1357974,4.486119,,,,
1402,6:13:14,-0.6847626,1.8244374,10.194822,7.549782,0.3626881,5.3603096,,167,6:15:37,15.11999931
1403,6:13:14,0.68715686,1.1731946,10.288198,8.994018,0.08724427,4.7932515,,,,
1404,6:13:15,0.27294734,1.211503,9.584282,8.579414,-0.27893808,4.981538,,168,6:15:38,14.14800024
1405,6:13:15,0.5147691,1.2833313,8.722343,8.520004,0.37536407,3.9517262,,,,
1406,6:13:15,0.16281068,0.86193895,10.802968,8.591717,-0.21483369,5.7802625,,169,6:15:39,11.19599962
1407,6:13:15,-0.45730647,1.8340145,9.541185,7.8301,0.88192445,4.2789865,,,,
1408,6:13:15,-0.16281068,1.2522057,10.40073,8.122602,0.43139428,4.5958714,,170,6:15:40,9.756000137
1409,6:13:15,-0.43096948,0.85236186,10.309748,7.9940643,-0.60271305,5.962777,,,,
1410,6:13:15,-0.44294083,2.152453,9.160496,7.8719416,0.97920847,4.103457,,171,6:15:41,9.323999691
1411,6:13:15,-0.20111908,1.3647367,10.551569,8.220072,-0.05145818,6.2155237,,,,
1412,6:13:15,-0.32801566,1.7909175,9.234718,8.00226,0.54676616,4.4408813,,172,6:15:42,9.179999828
1413,6:13:15,-0.09337672,0.7446195,11.30816,8.328852,-0.90520895,6.149043,,,,
1414,6:13:16,-0.37350687,2.3344178,9.332883,7.8816557,0.83046454,4.220125,,173,6:15:43,9.323999691
1415,6:13:16,0.11492519,1.8819,9.632168,8.388933,0.09441104,4.5224853,,,,
1416,6:13:16,-0.25858167,1.359948,11.028029,8.014734,-0.47029382,5.723565,,174,6:15:44,9.504000378
1417,6:13:16,0.2777359,2.710319,9.25866,8.332075,0.64263827,4.4300375,,,,
1418,6:13:16,1.0008069,1.1109436,9.150918,9.02932,-0.90253675,3.7505016,,175,6:15:45,10.11599979
1419,6:13:16,-0.18196489,1.4126221,10.489318,7.999199,-0.8728115,5.80857,,,,
1420,6:13:16,0.021548472,2.6456738,9.534002,8.090232,0.49812752,4.3026805,,176,6:15:46,9.504000378
1421,6:13:16,0.38308397,0.3998439,11.226754,8.472144,-1.7047819,7.219082,,,,
1422,6:13:16,-0.045491222,2.648068,7.920261,7.9425683,0.8233879,2.8860216,,177,6:15:47,6.515999794
1423,6:13:16,0.36632404,1.1708003,12.177281,8.678728,-0.43128005,7.403858,,,,
1424,6:13:17,-0.69673395,1.7909175,11.188446,7.905444,0.12836759,6.128541,,178,6:15:48,8.064000034
1425,6:13:17,-0.52674043,1.4700848,9.696813,7.768609,0.21654959,4.6057324,,,,
1426,6:13:17,0.32801566,1.5921928,9.340066,8.532293,0.3779431,4.019847,,179,6:15:49,7.884000206
1427,6:13:17,0.49082634,0.6560313,9.694419,8.823412,-0.7418943,4.784303,,,,
1428,6:13:17,-0.23224466,1.2091088,10.491713,7.758761,-0.06913988,5.0444517,,180,6:15:50,12.6
1429,6:13:17,0.51955765,1.0726352,11.463788,8.828357,0.3210744,6.8212557,,,,
1430,6:13:17,-0.5650489,0.7206767,10.190034,7.7451577,0.108486034,5.4620867,,181,6:15:51,8.207999897
1431,6:13:17,-0.65363705,2.248224,8.786988,7.773674,1.2761537,4.09791,,,,
1432,6:13:17,-0.18914771,1.7406378,10.127783,8.232873,1.1636007,4.9390793,,182,6:15:52,6.588000154
1433,6:13:17,-0.76137936,2.4852571,10.034406,8.021324,2.0291095,5.0434704,,,,
1434,6:13:18,-0.409421,0.65124273,10.072714,8.345524,-0.55654776,5.181442,,183,6:15:53,10.07999983
1435,6:13:18,-0.14365649,-0.1340794,11.411114,8.4509,-1.4425759,7.3316183,,,,
1436,6:13:18,-0.339987,1.1923488,9.771035,8.021283,0.33572176,5.0865817,,184,6:15:54,9.64800024
1437,6:13:18,-0.019154198,2.004008,9.009656,8.350433,0.9905542,4.4544883,,,,
1438,6:13:18,0.38308397,3.1436827,8.858817,8.86958,2.377451,3.431274,,185,6:15:55,8.856000137
1439,6:13:18,0.045491222,1.498816,11.267457,8.75012,0.38402343,6.8521566,,,,
1440,6:13:18,-0.2777359,2.073442,10.59706,8.269853,1.4212508,6.0124807,,186,6:15:56,9.720000172
1441,6:13:18,-0.68715686,2.073442,10.544386,7.9216995,1.3794392,5.776963,,,,
1442,6:13:18,-0.409421,2.8827069,7.467743,7.944197,2.1133084,2.6092372,,187,6:15:57,9.540000343
1443,6:13:18,-0.8547561,1.9010541,10.489318,7.6007485,1.2480366,5.6751375,,,,
1444,6:13:19,0.047885496,1.6951466,9.332883,8.503746,1.0931566,4.3172326,,188,6:15:58,10.65600014
1445,6:13:19,-0.43096948,1.9537282,9.766247,8.155077,1.152252,5.0880938,,,,
1446,6:13:19,-0.2466103,2.439766,10.570724,8.301615,1.5933039,5.8745623,,189,6:15:59,9.828000069
1447,6:13:19,0.13886794,3.1125572,10.970567,8.613686,2.2755687,6.3982806,,,,
1448,6:13:19,-0.5913859,2.4110348,9.591465,8.025744,1.4843909,4.650613,,190,6:16:00,9.756000137
1449,6:13:19,-0.7901107,2.6097596,8.727132,7.7988563,0.84823644,4.534659,,,,
1450,6:13:19,-1.297697,1.9704882,10.5803,7.355796,0.794117,6.1317534,,191,6:16:01,8.459999657
1451,6:13:19,-1.7310607,2.2793496,10.853248,6.869803,1.1284345,6.3918657,,,,
1452,6:13:19,-0.6057515,2.6193366,10.419884,7.9521995,1.4129934,6.351819,,192,6:16:02,6.588000154
1453,6:13:19,0.2849187,2.19555,10.0439825,8.846642,1.2917255,5.5373497,,,,
1454,6:13:20,-0.13647367,2.0758362,9.186832,8.415405,0.5459907,5.3681235,,193,6:16:03,8.207999897
1455,6:13:20,0.098165266,1.2354459,10.972961,8.57152,0.31184483,5.8834586,,,,
1456,6:13:20,-0.3615355,1.9417568,8.344048,8.006424,0.56142867,3.5230095,,194,6:16:04,11.5920001
1457,6:13:20,-0.45491222,1.637684,8.557138,7.908343,0.4628442,3.6346488,,,,
1458,6:13:20,-0.50998056,0.80208206,11.607444,7.8129716,-0.332434,6.573762,,195,6:16:05,11.7
1459,6:13:20,0.06943397,2.0518935,8.58587,8.437293,0.9698969,3.9317462,,,,
1460,6:13:20,0.18914771,0.57223165,12.443047,8.808193,-0.31261545,6.4464235,,196,6:16:06,7.271999931
1461,6:13:20,-0.15323359,1.1420691,9.498088,8.086981,-0.08140503,4.9175663,,,,
1462,6:13:20,-0.2849187,1.2665714,8.504464,8.011138,-0.04892535,3.3872476,,197,6:16:07,9.540000343
1463,6:13:20,-0.42378664,1.1133378,9.933846,7.7876105,-0.15149567,4.8603625,,,,
1464,6:13:21,0.2370332,1.7909175,9.368797,8.491603,0.9564153,3.622572,,198,6:16:08,7.956000137
1465,6:13:21,-0.68236834,0.9337672,11.564347,7.99571,-0.69879645,7.195057,,,,
1466,6:13:21,0.31365,0.9122187,8.889942,8.538327,-0.147957,3.8643005,,199,6:16:09,3.276000094
1467,6:13:21,-0.2944958,0.76616794,10.771842,8.233225,-0.698928,6.0539746,,,,
1468,6:13:21,0.21069619,1.7214836,7.9418097,8.33925,0.38385874,2.543811,,200,6:16:10,4.211999846
1469,6:13:21,0.27294734,-0.1699935,11.478153,8.702469,-1.5132692,5.9581103,,,,
1470,6:13:21,0.37111259,0.56265455,9.828498,8.456181,-0.99135983,4.608811,,201,6:16:11,5.471999931
1471,6:13:21,-0.00478855,-0.090982445,10.331296,8.299811,-1.4624783,5.2625957,,,,
1472,6:13:21,0.59378016,-0.5985687,9.778218,8.778976,-2.0745132,4.3610525,,202,6:16:12,5.364000034
1473,6:13:21,0.16759923,-0.33519846,9.799767,8.435727,-1.7632496,3.777703,,,,
1474,6:13:22,-0.44533512,0.818842,11.250697,8.193166,-0.9861598,6.2742896,,203,6:16:13,13.35600014
1475,6:13:22,-0.16281068,1.8292259,9.502876,7.980161,0.486768,4.806986,,,,
1476,6:13:22,0.46927786,0.6895511,9.912297,8.774783,-0.46136913,4.520177,,204,6:16:14,8.495999622
1477,6:13:22,0.17238778,1.3216397,8.411087,8.372976,-0.10441406,3.251931,,,,
1478,6:13:22,-0.50758624,0.44533512,12.75909,8.016557,-0.93950844,7.864896,,205,6:16:15,10.18799973
1479,6:13:22,-0.2753416,1.908237,8.796566,8.257486,0.23868859,4.309484,,,,
1480,6:13:22,-0.36392978,1.228263,10.446221,8.205189,-0.28950566,6.7817163,,206,6:16:16,7.379999828
1481,6:13:22,0.18196489,1.010384,10.285805,8.710037,-0.38615564,5.1609383,,,,
1482,6:13:22,0.15562786,1.1109436,7.395915,8.517992,-0.6513389,3.1601677,,207,6:16:17,3.635999966
1483,6:13:22,-0.8667275,0.531529,11.782227,7.7775254,-0.86054784,6.3695173,,,,
1484,6:13:23,-0.5794145,2.099779,9.0838785,7.761824,0.6926101,4.600165,,208,6:16:18,4.247999811
1485,6:13:23,-0.3328042,0.035914123,12.076722,8.3415985,-0.7301575,6.3972564,,,,
1486,6:13:23,-0.5219519,0.9289786,9.900327,7.910103,-0.25687066,4.503149,,209,6:16:19,5.364000034
1487,6:13:23,0.20111908,0.888276,8.770228,8.2652,-0.26776677,3.764748,,,,
1488,6:13:23,0.2944958,0.59378016,8.889942,8.441033,-0.8816558,3.650264,,210,6:16:20,3.528000069
1489,6:13:23,-0.05027977,1.5658557,10.051166,8.236948,-0.39623278,5.135337,,,,
1490,6:13:23,0.51716334,1.2474172,9.126976,8.694795,-0.42727908,3.7897973,,211,6:16:21,2.339999914
1491,6:13:23,-0.083799616,1.0774237,9.751882,8.27966,-1.0255512,4.983409,,,,
1492,6:13:23,0.23463893,1.4365649,9.007262,8.526228,-0.15642531,2.9659085,,212,6:16:22,2.051999974
1493,6:13:23,0.10774237,0.66321415,9.79019,8.432788,-1.4669374,5.7976513,,,,
1494,6:13:24,0.007182824,1.2234744,9.239507,8.297196,-0.10723623,3.393457,,213,6:16:23,2.160000086
1495,6:13:24,-0.46927786,0.41420954,11.300977,7.935378,-1.7898953,7.2884307,,,,
1496,6:13:24,-0.1987248,1.6065584,9.8787775,8.1318,0.29200038,4.608089,,214,6:16:24,0.612000006
1497,6:13:24,0.31125572,0.4668836,8.801354,8.460432,-1.2396656,3.9715378,,,,
1498,6:13:24,-0.15562786,0.68715686,10.113417,8.14458,-1.0047266,5.1683316,,215,6:16:25,6.588000154
1499,6:13:24,0.14844504,1.3072741,8.988108,8.210958,0.09490391,3.3149047,,,,
1500,6:13:24,0.2681588,0.011971374,12.531634,8.630848,-1.4570668,7.111299,,216,6:16:26,5.832000017
1501,6:13:24,0.30646718,1.4341706,9.04557,8.5367155,-0.022796845,3.8674965,,,,
1502,6:13:24,0.31125572,-0.600963,12.780639,8.598074,-2.1436322,7.433852,,217,6:16:27,5.147999811
1503,6:13:24,0.43096948,0.96489275,8.470944,8.301262,-0.30544773,3.3125052,,,,
1504,6:13:25,0.3040729,-0.002394275,10.182851,8.542979,-1.4539686,5.2093973,,218,6:16:28,5.003999949
1505,6:13:25,-0.17478207,1.1708003,9.794978,8.13315,-0.18189402,4.4580293,,,,
1506,6:13:25,0.06943397,1.3575538,10.360027,8.356856,-0.11058464,5.525531,,219,6:16:29,5.832000017
1507,6:13:25,0.21548474,1.2330515,9.70639,8.566559,0.20089583,4.0646257,,,,
1508,6:13:25,-0.95531565,-0.2753416,12.138973,7.6094894,-1.1727017,6.3691835,,220,6:16:30,6.120000172
1509,6:13:25,0.28252444,-0.014365649,11.174081,8.813254,-1.4785812,7.0855765,,,,
1510,6:13:25,0.48124924,1.3168511,7.5922456,8.71631,0.32994515,2.4769087,,221,6:16:31,6.911999846
1511,6:13:25,0.24900457,1.4964218,6.7877693,8.320791,0.08743771,1.2425728,,,,
1512,6:13:25,0.79250497,1.9178141,10.494106,8.689799,0.38154635,3.8926024,,222,6:16:32,7.84800024
1513,6:13:25,0.5554718,2.030345,12.196436,8.731695,0.952075,6.6812034,,,,
1514,6:13:26,0.42139238,-0.6943397,12.100665,8.542433,-1.7622354,6.6113863,,223,6:16:33,9.179999828
1515,6:13:26,-0.45251793,0.36632404,11.30816,7.9931855,-1.3645035,6.765695,,,,
1516,6:13:26,-0.679974,2.1500587,7.9944835,7.5089517,1.048209,2.8371975,,224,6:16:34,8.171999931
1517,6:13:26,0.105348095,0.55786604,9.117398,8.365278,-0.5287358,3.8628063,,,,
1518,6:13:26,-0.052674048,0.9984126,10.525232,8.389529,-0.24900949,5.3000765,,225,6:16:35,8.207999897
1519,6:13:26,0.2849187,1.1229149,11.195629,8.589652,-0.07815241,6.681426,,,,
1520,6:13:26,0.20111908,2.3918805,9.4095,8.480166,1.4632196,4.5858617,,226,6:16:36,11.19599962
1521,6:13:26,-0.098165266,0.90503585,8.059129,8.0627365,-0.25633913,3.2412193,,,,
1522,6:13:26,0.339987,2.1620302,8.039975,8.276021,0.72965676,2.2053447,,227,6:16:37,13.21200027
1523,6:13:26,0.8140534,3.057489,12.241927,9.007401,1.4723593,6.8433976,,,,
1524,6:13:27,-0.13168511,4.862772,11.332103,8.359281,3.4382477,6.4874015,,228,6:16:38,14.86800041
1525,6:13:27,-0.06464542,3.179597,8.925857,8.124168,2.3376586,3.7572265,,,,
1526,6:13:27,-0.5219519,1.6664152,9.553157,7.7423296,0.6814741,4.137091,,229,6:16:39,14.75999966
1527,6:13:27,0.24900457,2.030345,8.978531,8.553136,0.7184391,4.0114446,,,,
1528,6:13:27,0.55307746,1.3551595,10.575512,8.672278,0.9410383,4.805321,,230,6:16:40,13.42800007
1529,6:13:27,0.14126222,2.2769554,8.133351,8.401172,0.9135064,2.9371765,,,,
1530,6:13:27,-0.04070267,1.8004947,10.743111,8.405296,0.16721922,5.969499,,231,6:16:41,11.26800041
1531,6:13:27,-0.5506832,2.7079248,9.979338,7.864389,1.2354167,5.7114964,,,,
1532,6:13:27,-0.15562786,2.1141446,9.577099,8.29545,0.8654456,4.1025047,,232,6:16:42,10.47600031
1533,6:13:27,-0.41181526,1.759792,10.541992,8.014023,0.288234,5.6886497,,,,
1534,6:13:28,0.031125572,2.0447106,8.710372,8.302128,0.8707287,3.4204116,,233,6:16:43,3.492000103
1535,6:13:28,-0.4285752,0.36632404,12.440652,7.957675,-0.8835577,7.3372817,,,,
1536,6:13:28,-0.0670397,2.3942747,7.8723755,8.113948,0.7194414,2.967724,,234,6:16:44,5.543999863
1537,6:13:28,0.25858167,0.3304099,10.281016,8.471684,-1.2964501,5.362953,,,,
1538,6:13:28,0.31843856,1.4126221,10.106234,8.392444,-0.47401124,4.9715257,,235,6:16:45,4.607999897
1539,6:13:28,0.18196489,0.6368771,9.909904,8.465385,-0.9494878,4.35487,,,,
1540,6:13:28,0.05506832,-0.17957062,11.937854,8.461245,-2.0551887,6.718833,,236,6:16:46,6.660000086
1541,6:13:28,-0.18675344,1.2234744,7.2953553,7.923977,-0.52144307,2.4514036,,,,
1542,6:13:28,-0.13168511,0.22745611,11.169292,8.029887,-1.4295334,5.6446714,,237,6:16:47,9.359999657
1543,6:13:28,-0.51955765,1.3024855,10.419884,7.667671,-0.2088676,5.0286818,,,,
1544,6:13:29,0.5770202,1.010384,10.130177,8.636076,-0.28255224,4.950962,,238,6:16:48,10.9079999
1545,6:13:29,0.25858167,0.45970076,10.3193245,8.526171,-1.2069703,5.0075502,,,,
1546,6:13:29,0.2466103,1.759792,9.864412,8.396039,0.006600356,5.033571,,239,6:16:49,12.42000017
1547,6:13:29,0.91461295,0.56265455,9.514848,8.815478,-1.2205796,4.0344615,,,,
1548,6:13:29,-0.1699935,0.24900457,11.12859,8.141279,-2.0987134,6.8982863,,240,6:16:50,12.20400038
1549,6:13:29,0.009577099,1.7645805,6.876357,7.7922783,0.14441308,1.6307447,,,,
1550,6:13:29,0.00478855,-0.18435916,11.162109,8.216445,-1.873311,5.6790853,,241,6:16:51,11.98799973
1551,6:13:29,0.0670397,0.9816527,9.943423,8.271817,-0.6992336,4.7503805,,,,
1552,6:13:29,0.43815228,-0.08619389,11.4997015,8.763963,-1.8171402,6.301135,,242,6:16:52,12.27600031
1553,6:13:29,0.679974,0.9768641,10.041589,8.746927,-0.58237964,4.629562,,,,
1554,6:13:30,0.7302538,0.5770202,10.707197,8.873286,-1.3937037,5.7213316,,243,6:16:53,14.32800007
1555,6:13:30,0.8092649,0.68715686,9.399923,8.770144,-1.1751267,4.1494718,,,,
1556,6:13:30,0.5865973,0.80208206,9.25866,8.583743,-1.2793324,4.193174,,244,6:16:54,14.86800041
1557,6:13:30,-0.18914771,0.7110996,9.45978,7.883011,-1.2086831,4.0814734,,,,
1558,6:13:30,0.083799616,1.8220432,8.906702,8.043566,0.13906664,3.6629968,,245,6:16:55,12.95999966
1559,6:13:30,0.14126222,-0.45730647,11.868421,8.172487,-1.9264578,6.4603477,,,,
1560,6:13:30,0.23942748,0.6081458,10.3193245,8.383428,-1.0589907,4.955267,,246,6:16:56,10.51200027
1561,6:13:30,-0.028731298,0.37590113,10.314536,8.237428,-1.273444,5.2771826,,,,
1562,6:13:30,0.6560313,1.2546,9.601042,8.649519,-0.36623845,4.6509676,,247,6:16:57,8.243999863
1563,6:13:30,0.8284191,-0.5554718,11.485336,9.157064,-2.171301,6.4523787,,,,
1564,6:13:31,0.15083931,1.0079896,8.8324795,8.307379,-0.8766538,3.8201153,,248,6:16:58,6.984000206
1565,6:13:31,0.045491222,0.5913859,10.59706,8.276663,-1.0161837,5.2515364,,,,
1566,6:13:31,-0.20590763,1.4605076,9.239507,7.9470773,-0.34759027,4.1807966,,249,6:16:59,5.147999811
1567,6:13:31,0.4285752,1.2306572,9.926663,8.574234,-0.3380627,4.3537664,,,,
1568,6:13:31,0.71828246,0.87630457,10.606637,8.861029,-0.8895305,5.659646,,250,6:17:00,4.967999983
1569,6:13:31,0.679974,1.8364087,9.203592,8.755887,0.20152798,3.9895864,,,,
1570,6:13:31,0.28252444,1.8435916,9.641745,8.475916,0.22442432,4.387986,,251,6:17:01,0.612000006
1571,6:13:31,-0.5147691,2.5139885,9.160496,7.8407035,0.94880885,4.2233324,,,,
1572,6:13:31,0.39266106,1.2354459,10.63058,8.603791,0.18803626,5.1091743,,252,6:17:02,0
1573,6:13:31,0.97446984,0.6081458,11.65533,9.313599,-0.763492,6.7940035,,,,
1574,6:13:32,0.51955765,1.7119064,9.081485,8.70603,0.3328181,4.274169,,253,6:17:03,0
1575,6:13:32,0.4070267,1.3479767,9.981731,8.579852,0.113920674,4.428626,,,,
1576,6:13:32,0.052674048,2.3248408,9.184438,8.217636,0.88576925,4.4061275,,254,6:17:04,0
1577,6:13:32,0.7134939,1.8531687,9.462174,8.831974,0.7961317,3.7675483,,,,
1578,6:13:32,0.05506832,1.924997,9.701602,8.381119,0.5907043,4.361226,,255,6:17:05,8.604000378
1579,6:13:32,0.33519846,1.5227587,10.094262,8.5693865,0.49562818,4.9367003,,,,
1580,6:13:32,0.12450229,1.8004947,9.500483,8.425326,0.8405244,4.294269,,256,6:17:06,12.24000034
1581,6:13:32,0.339987,2.0662591,9.718362,8.566483,1.0329791,4.5964985,,,,
1582,6:13:32,1.010384,1.8052832,10.419884,9.21615,0.9918873,4.9948463,,257,6:17:07,13.82399969
1583,6:13:32,1.3288225,1.3360053,9.634562,9.493852,0.2724676,4.5162497,,,,
1584,6:13:33,0.9481328,1.0774237,9.921875,9.005075,0.2659467,4.461955,,258,6:17:08,14.79600048
1585,6:13:33,0.5913859,1.4916332,8.921068,8.658119,0.7389099,3.240338,,,,
1586,6:13:33,0.41181526,0.9194015,10.853248,8.5955,0.16572356,5.022111,,259,6:17:09,16.63199959
1587,6:13:33,0.38308397,1.7047237,9.385557,8.443619,1.1718438,4.2862434,,,,
1588,6:13:33,0.81165916,0.48124924,10.891556,9.024693,0.032916255,5.2232876,,260,6:17:10,13.3920001
1589,6:13:33,0.24182175,1.5299416,9.514848,8.54022,0.87959397,4.5549307,,,,
1590,6:13:33,0.5458947,0.9505271,9.526819,8.618713,0.7985316,4.060731,,261,6:17:11,11.05199976
1591,6:13:33,0.15802214,0.73743665,11.121407,8.533069,0.49357677,5.6224732,,,,
1592,6:13:33,0.05506832,0.9577099,9.454991,8.302228,0.6696537,4.799903,,262,6:17:12,8.459999657
1593,6:13:33,0.13886794,0.7972935,10.33369,8.412091,0.719983,5.108224,,,,
1594,6:13:34,0.105348095,0.9122187,9.591465,8.285127,0.65624195,4.5224023,,263,6:17:13,7.45199976
1595,6:13:34,0.24900457,1.3096683,10.245102,8.474399,1.334572,4.71087,,,,
1596,6:13:34,0.49800915,0.52674043,10.242707,8.691904,0.5533478,4.773885,,264,6:17:14,5.72400012
1597,6:13:34,0.49082634,0.9289786,9.811738,8.686068,0.8667574,4.522986,,,,
1598,6:13:34,0.84278476,0.39505535,10.257073,8.970906,0.37533727,4.713659,,265,6:17:15,2.735999966
1599,6:13:34,0.76616794,0.84039044,9.155706,8.844688,0.9065835,3.517096,,,,
1600,6:13:34,0.6153286,0.3232271,11.511673,8.879878,0.09865613,6.3386574,,266,6:17:16,2.196000051
1601,6:13:34,0.37111259,1.4652961,7.987301,8.381803,1.5492393,2.3638148,,,,
1602,6:13:34,0.31365,0.38068968,10.43425,8.61555,0.31754223,5.116369,,267,6:17:17,1.188000047
1603,6:13:34,-0.55307746,1.2785428,10.340873,7.7683945,1.4509201,4.9072022,,,,
1604,6:13:35,0.117319465,0.9194015,9.70639,8.398153,1.1042777,4.813947,,268,6:17:18,1.259999979
1605,6:13:35,0.13647367,0.5123748,10.541992,8.562277,0.9715454,4.650687,,,,
1606,6:13:35,-0.34477556,1.5586729,9.2490835,8.073614,1.695689,4.549327,,269,6:17:19,0.935999966
1607,6:13:35,0.038308397,-0.14126222,11.873209,8.485976,0.7019255,5.840564,,,,
1608,6:13:35,-0.6177229,1.2138973,9.289786,7.885881,1.2929018,4.5634766,,270,6:17:20,0
1609,6:13:35,-0.10055954,1.1013664,10.111023,8.294867,1.7019411,3.8069222,,,,
1610,6:13:35,-0.2849187,1.1636176,10.228342,8.126258,1.2430155,5.79783,,271,6:17:21,0
1611,6:13:35,0.21787901,2.2697725,8.118986,8.386622,2.6958146,2.958187,,,,
1612,6:13:35,-0.29210153,0.43575802,12.024048,8.204128,0.9619764,6.81446,,272,6:17:22,0
1613,6:13:35,-0.13647367,2.2027328,8.758257,8.170034,2.5959666,3.4404068,,,,
1614,6:13:36,-0.04070267,0.5554718,11.339286,8.377622,1.1642419,6.109358,,273,6:17:23,0
1615,6:13:36,-0.35914123,1.8819,9.179649,8.02389,2.293935,4.211449,,,,
1616,6:13:40,0.26097596,1.2881198,10.254679,7.861338,2.6579003,4.316692,,274,6:17:24,0
1617,6:13:40,0.26097596,1.2881198,10.254679,7.861338,2.6579003,4.316692,,,,
1618,6:13:40,0.26097596,1.2881198,10.254679,7.861338,2.6579003,4.316692,,275,6:17:25,1.65600003
1619,6:13:40,0.26097596,1.2881198,10.254679,7.861338,2.6579003,4.316692,,,,
1620,6:13:40,0.29210153,-0.06464542,10.865219,7.861338,2.6579003,4.316692,,276,6:17:26,3.132000017
1621,6:13:40,-0.49800915,1.4198049,10.084685,-2.471433,-2.865262,1.4904684,,,,
1622,6:13:41,0.76616794,0.6608198,8.9976845,-1.6880223,-3.512462,0.5433732,,277,6:17:27,2.807999897
1623,6:13:41,0.4860378,0.67757976,10.431855,-1.7229002,-3.6881843,1.8964542,,,,
1624,6:13:41,0.22506183,1.6161355,10.453403,-2.049436,-2.8088188,1.9353834,,278,6:17:28,1.04399997
1625,6:13:41,1.1516461,0.69673395,9.471751,-1.3224496,-3.6111515,1.0555954,,,,
1626,6:13:41,0.5243462,0.9864412,9.665688,-1.6921123,-3.5688941,1.2313892,,279,6:17:29,0
1627,6:13:41,-0.45970076,1.9321798,9.586677,-2.5347342,-2.834312,1.3986557,,,,
1628,6:13:41,0.026337024,2.2458298,10.477346,-1.9175247,-2.3294778,1.9015808,,280,6:17:30,0
1629,6:13:41,0.4189981,0.8332076,11.399142,-1.3153733,-3.6487458,2.8401282,,,,
1630,6:13:41,0.23463893,1.5610672,8.099832,-1.8139337,-3.09345,-0.005886936,,281,6:17:31,0
1631,6:13:41,-0.10055954,0.9289786,10.570724,-1.875787,-3.592052,1.7701288,,,,
1632,6:13:42,0.011971374,2.0806248,10.501289,-2.0217462,-2.2378216,1.8131622,,282,6:17:32,0
1633,6:13:42,0.5123748,0.36632404,11.411114,-1.2547684,-4.073092,3.2656245,,,,
1634,6:13:42,-0.12689656,0.65842557,9.924269,-2.0463545,-3.5129566,0.6834466,,283,6:17:33,0
1635,6:13:42,0.011971374,1.3719195,10.635368,-1.8703095,-2.9345043,2.527696,,,,
1636,6:13:42,0.9768641,1.175589,8.530801,-1.0423911,-3.5067875,-0.12708473,,284,6:17:34,1.764000034
1637,6:13:42,-0.052674048,2.19555,7.5515428,-2.107821,-2.7900991,-0.6592927,,,,
1638,6:13:42,-1.786129,0.967287,11.80138,-3.8498523,-2.9052835,1.3461128,,285,6:17:35,0.575999987
1639,6:13:42,-0.24421602,2.2434354,10.697619,-1.9418024,-2.3048148,2.0051327,,,,
1640,6:13:42,0.71588814,0.77574503,11.739129,-0.78359747,-3.1564898,2.7897213,,286,6:17:36,0
1641,6:13:42,0.06943397,-0.13886794,11.047184,-1.3557146,-4.573382,2.7869146,,,,
1642,6:13:43,-0.15802214,1.8220432,8.241094,-1.977566,-2.960123,-0.32828084,,287,6:17:37,1.727999961
1643,6:13:43,0.4932206,1.4868447,9.510059,-1.5905259,-3.002727,0.9403342,,,,
1644,6:13:43,0.062251143,0.96489275,9.974549,-1.918443,-3.7420602,1.8221447,,288,6:17:38,0
1645,6:13:43,-0.28252444,2.0351336,9.031204,-2.2018914,-2.7665093,0.56528425,,,,
1646,6:13:43,0.021548472,2.1045675,10.05356,-1.7028091,-2.6293206,1.2821139,,289,6:17:39,1.944000077
1647,6:13:43,0.023942748,1.2234744,11.542799,-1.7033861,-3.2023075,2.275764,,,,
1648,6:13:43,1.0989721,1.0774237,11.176475,-0.44090754,-3.177816,2.897011,,290,6:17:40,2.339999914
1649,6:13:43,0.23224466,0.15802214,10.659311,-1.4532735,-4.279298,2.098782,,,,
1650,6:13:43,0.03351985,0.7877164,7.5467544,-1.8922946,-3.7609878,-0.53523195,,291,6:17:41,4.17599988
1651,6:13:43,0.16281068,1.2809371,8.7534685,-1.7768848,-3.3669415,0.19980851,,,,
1652,6:13:44,-0.47885495,1.4748733,9.124581,-2.0716867,-3.355517,0.9364961,,292,6:17:42,3.779999828
1653,6:13:44,-2.264984,1.1540405,10.632975,-3.322599,-3.6977527,1.8950415,,,,
1654,6:13:44,-1.4485363,1.2043202,14.964217,-2.2272182,-3.5459206,5.7761154,,293,6:17:43,3.060000086
1655,6:13:44,0.66321415,1.7238779,11.265063,-0.06520949,-2.8294811,3.087433,,,,
1656,6:13:44,0.38068968,-0.45491222,8.41827,-1.0940864,-4.6340675,-0.027575493,,294,6:17:44,4.139999914
1657,6:13:44,-0.3040729,0.75180227,7.3863378,-1.8697345,-4.2345266,-1.0521708,,,,
1658,6:13:44,-0.21069619,2.648068,8.226728,-1.901336,-2.284905,-0.46558714,,295,6:17:45,5.507999897
1659,6:13:44,-0.45251793,3.6201434,10.118205,-1.9407896,-1.5395159,1.8150718,,,,
1660,6:13:44,-0.102953814,3.9697077,10.072714,-1.4973328,-1.5758457,1.7264969,,296,6:17:46,4.320000172
1661,6:13:45,0.17478207,3.047912,9.751882,-1.4523143,-2.129999,1.4026002,,,,
1662,6:13:45,0.64166564,1.0965779,11.267457,-1.0795187,-3.6404572,2.8058488,,297,6:17:47,4.535999966
1663,6:13:45,0.1340794,0.73743665,10.853248,-1.4591889,-4.0835676,2.6520126,,,,
1664,6:13:45,-0.26097596,0.67757976,9.201198,-1.9660122,-3.930531,0.7818896,,298,6:17:48,2.628000069
1665,6:13:45,-0.13886794,1.4102279,8.784595,-1.656066,-3.4824047,0.26982212,,,,
1666,6:13:45,-0.36871833,1.9178141,10.97775,-1.6565173,-2.7208624,2.0823243,,299,6:17:49,1.907999897
1667,6:13:45,0.21309046,2.2530127,10.187639,-1.032855,-2.7055407,1.8266327,,,,
1668,6:13:45,-0.35674694,1.1420691,9.680053,-1.5581496,-3.5713196,1.3816696,,300,6:17:50,0
1669,6:13:45,-1.4485363,1.1444633,11.4997015,-2.5554078,-3.7860215,2.7415118,,,,
1670,6:13:45,-0.2561874,1.7430321,10.419884,-1.3137714,-2.8931706,1.8014164,,301,6:17:51,0
1671,6:13:46,-0.37590113,1.2857256,9.938635,-1.2898372,-3.2580943,1.300992,,,,
1672,6:13:46,0.002394275,1.9680939,8.518829,-1.1201272,-2.7686532,0.1702592,,302,6:17:52,2.735999966
1673,6:13:46,-0.9960183,3.1484714,8.880365,-2.0275974,-1.5531516,0.16740236,,,,
1674,6:13:46,-0.57223165,3.4238129,8.9186735,-2.0636382,-1.3611429,0.64192516,,303,6:17:53,4.788000154
1675,6:13:46,0.11013664,2.9593236,10.446221,-1.5215671,-1.6242386,1.6347234,,,,
1676,6:13:46,-0.04070267,3.0694604,10.78142,-1.667165,-1.7128052,2.4734478,,304,6:17:54,8.604000378
1677,6:13:46,0.32083282,3.0383348,10.968173,-1.3441696,-1.7624394,2.4827144,,,,
1678,6:13:46,-0.42378664,1.8723229,9.929058,-1.856172,-2.7381673,1.7309456,,305,6:17:55,11.23199959
1679,6:13:46,-0.045491222,1.7621863,8.08786,-1.6465435,-2.9001036,-0.31634483,,,,
1680,6:13:47,0.4070267,1.7406378,10.156514,-1.234307,-2.9157274,1.5843424,,306,6:17:56,12.45600014
1681,6:13:47,0.6201172,1.8914771,8.818114,-0.7696676,-2.807036,0.30062515,,,,
1682,6:13:47,-0.5411061,1.9154198,10.202005,-2.105006,-2.9454288,2.2617233,,307,6:17:57,12.56400003
1683,6:13:47,0.11253092,3.1269228,10.470163,-1.602985,-1.5045757,1.888697,,,,
1684,6:13:47,0.13647367,2.1979442,10.395941,-1.2810465,-2.712541,2.2748013,,308,6:17:58,12.05999966
1685,6:13:47,0.32562137,1.9728824,9.026416,-1.2596669,-2.9487314,0.69773513,,,,
1686,6:13:47,-0.016759925,2.3224466,9.4932995,-1.6220405,-2.7085311,1.2362556,,309,6:17:59,9.25199976
1687,6:13:47,0.25858167,2.0614705,10.45101,-1.2661893,-2.5918548,1.9087379,,,,
1688,6:13:47,0.007182824,1.7717633,10.716774,-1.4087558,-2.9578032,2.4483323,,310,6:18:00,11.55600014
1689,6:13:47,0.5506832,1.7573977,8.877971,-1.1360748,-2.9884872,0.68189126,,,,
1690,6:13:48,0.16520496,1.6999351,9.73991,-1.2497016,-3.106546,1.2034681,,311,6:18:01,11.15999966
1691,6:13:48,-0.8379962,1.9393626,10.762265,-2.1261487,-2.8909836,2.2823017,,,,
1692,6:13:48,0.4764607,1.786129,9.998491,-0.9798557,-2.7269123,1.5366274,,312,6:18:02,13.24800024
1693,6:13:48,0.47167215,1.0606637,9.550762,-1.0534365,-3.5873616,1.1967704,,,,
1694,6:13:48,-0.15323359,1.1133378,9.7135725,-1.6505007,-3.6426709,1.3052859,,313,6:18:03,14.68799973
1695,6:13:48,-0.035914123,1.3455825,9.208381,-1.4902251,-3.5777786,0.83266175,,,,
1696,6:13:48,-0.35435268,1.673598,10.465375,-1.4929845,-3.3167825,1.9850972,,314,6:18:04,14.47199993
1697,6:13:48,-0.58420306,1.5754328,10.556357,-1.7809677,-3.1775937,2.0736828,,,,
1698,6:13:48,-0.045491222,1.376708,9.225141,-1.3517344,-3.6254127,0.93942225,,315,6:18:05,12.77999983
1699,6:13:48,-0.24421602,1.2426286,10.276228,-1.4405801,-3.5682583,1.6860077,,,,
1700,6:13:49,-0.37350687,1.7526091,10.010463,-1.7299144,-3.153811,1.9237854,,316,6:18:06,11.66400003
1701,6:13:49,0.7015225,1.3024855,9.816526,-0.7192956,-3.4767766,1.1434501,,,,
1702,6:13:49,-0.04070267,1.3623424,9.744699,-1.4667485,-3.5035577,1.6779095,,317,6:18:07,12.13199959
1703,6:13:49,0.3423813,1.1708003,9.708784,-1.2307246,-3.5678196,1.0005777,,,,
1704,6:13:49,-0.3902668,1.4293821,10.063137,-1.6774464,-3.4221656,1.3204218,,318,6:18:08,12.09599962
1705,6:13:49,0.45491222,1.2737542,9.672871,-1.2305152,-3.3041275,1.3321736,,,,
1706,6:13:49,0.12929083,0.75659084,9.007262,-1.115888,-4.2181845,0.9477867,,319,6:18:09,13.03199959
1707,6:13:49,-1.0199611,0.4740664,10.393547,-2.2176123,-4.5312967,1.6219326,,,,
1708,6:13:49,-0.21069619,0.8978531,9.550762,-1.6148388,-3.8236785,1.1679207,,320,6:18:10,11.8079999
1709,6:13:49,0.41181526,0.7853221,10.939442,-0.9565169,-3.7641952,2.4168646,,,,
1710,6:13:50,0.22985038,1.0726352,9.184438,-1.2601213,-3.6665,0.79681075,,321,6:18:11,9.935999966
1711,6:13:50,-0.50998056,0.91700727,10.654523,-1.8144335,-4.146973,2.2889438,,,,
1712,6:13:50,-0.11492519,1.8866886,8.691217,-1.8530347,-2.9658418,0.44333583,,322,6:18:12,10.0079999
1713,6:13:50,0.117319465,0.5985687,9.826104,-1.4633219,-4.305092,1.713961,,,,
1714,6:13:50,-0.083799616,0.409421,10.127783,-1.773824,-3.7327442,0.7301224,,323,6:18:13,10.8
1715,6:13:50,-1.0223553,2.6767993,12.524451,-1.9587771,-1.6426157,5.5150843,,,,
1716,6:13:50,0.8475733,0.08140534,9.766247,-0.9872056,-4.0683465,1.5541117,,324,6:18:14,11.52000017
1717,6:13:50,-0.34716985,0.79250497,7.6305537,-2.3419538,-3.6084895,-0.3412033,,,,
1718,6:13:50,0.35914123,0.72546524,7.7119594,-2.1310802,-4.0843616,-0.7199007,,325,6:18:15,10.25999966
1719,6:13:50,-0.749408,0.818842,12.622617,-2.4130046,-3.2202537,3.4444637,,,,
1720,6:13:51,0.098165266,1.2186859,11.0352125,-1.3548096,-3.1019013,2.4221683,,326,6:18:16,10.0079999
1721,6:13:51,0.22985038,-0.11971374,11.949825,-1.2332897,-3.952964,2.8657427,,,,
1722,6:13:51,0.6703969,0.4285752,8.81572,-1.2189214,-4.3196216,0.90712386,,327,6:18:17,9.612000275
1723,6:13:51,0.88588166,1.7621863,8.126168,-1.019113,-2.9845195,-0.2902338,,,,
1724,6:13:51,-0.60335726,1.489239,9.490906,-2.159337,-3.6724687,1.3528999,,328,6:18:18,8.928000069
1725,6:13:51,-0.55307746,1.8866886,8.411087,-2.1075084,-3.0264332,0.08367672,,,,
1726,6:13:51,-1.515576,2.1237218,13.400756,-2.532568,-2.763393,4.0993805,,329,6:18:19,7.487999725
1727,6:13:51,0.16041641,2.126116,11.581107,-0.9617673,-2.7590418,3.3983912,,,,
1728,6:13:51,0.6273,2.1668186,8.772623,-0.76676464,-2.5441847,0.280433,,330,6:18:20,5.471999931
1729,6:13:51,0.22266756,1.089395,7.455772,-1.6412083,-3.7456768,-0.7140373,,,,
1730,6:13:52,-1.3982565,0.90024734,9.593859,-3.0540318,-4.3851824,1.6330799,,331,6:18:21,5.507999897
1731,6:13:52,0.28013015,1.2091088,11.490125,-1.7423534,-3.2310665,3.0785708,,,,
1732,6:13:52,1.7813405,3.7015488,10.340873,0.04838257,-0.816645,2.073772,,332,6:18:22,5.652000189
1733,6:13:52,-0.6703969,0.18914771,12.591491,-2.3113377,-4.193549,3.8477054,,,,
1734,6:13:52,0.600963,2.2697725,7.371972,-1.5648597,-2.4491646,-0.6510111,,333,6:18:23,5.471999931
1735,6:13:52,0.90503585,1.6185298,7.9394155,-1.4846392,-2.6503208,-0.37852126,,,,
1736,6:13:52,-0.24900457,0.7709565,11.439845,-1.8632443,-3.8799663,2.65621,,334,6:18:24,7.128000069
1737,6:13:52,-0.29210153,2.2745612,8.655303,-2.180727,-2.1476974,0.11865425,,,,
1738,6:13:52,-0.87151605,2.1045675,10.28341,-2.3389642,-2.58042,1.0594078,,335,6:18:25,9.035999966
1739,6:13:52,-0.19633053,1.7981004,12.864439,-1.7685463,-2.5219846,4.614544,,,,
1740,6:13:53,0.7853221,3.2202997,8.980925,-0.9189173,-1.2564217,0.6782214,,336,6:18:26,9.468000412
1741,6:13:53,-0.03351985,0.045491222,11.590684,-1.712334,-4.293601,2.4353824,,,,
1742,6:13:53,0.53871185,2.22907,8.425453,-1.4117024,-2.8606825,0.61236125,,337,6:18:27,10.51200027
1743,6:13:53,0.7446195,1.3623424,9.663293,-1.3697817,-2.911088,1.2526152,,,,
1744,6:13:53,0.69194543,1.3407938,6.629747,-1.5632269,-3.371589,-1.4588848,,338,6:18:28,11.8079999
1745,6:13:53,-1.0822122,2.238647,11.11183,-3.1205957,-2.6286597,2.6780155,,,,
1746,6:13:53,0.11013664,2.2961094,11.439845,-1.560079,-2.0971835,2.9454107,,339,6:18:29,13.24800024
1747,6:13:53,0.42618093,1.5538844,11.054367,-1.0845463,-2.8271618,2.4172585,,,,
1748,6:13:53,-0.026337024,1.0774237,8.317711,-1.8516467,-3.5622857,-0.06621246,,340,6:18:30,12.88799973
1749,6:13:53,-1.211503,2.1213274,9.4142885,-2.507297,-3.1197076,0.10341625,,,,
1750,6:13:54,0.37590113,2.5738454,10.132571,-1.2430298,-2.5195127,1.9566357,,341,6:18:31,11.62800007
1751,6:13:54,-0.3232271,0.30886146,13.434276,-1.102451,-3.803945,4.184256,,,,
1752,6:13:54,-0.6392714,1.6783867,9.445415,-1.9752814,-3.185039,1.588193,,342,6:18:32,11.95199976
1753,6:13:54,-0.5985687,1.403045,9.170073,-2.502461,-2.65411,0.38197955,,,,
1754,6:13:54,-0.37350687,0.9720756,8.554744,-2.17217,-3.679205,0.25800905,,343,6:18:33,12.05999966
1755,6:13:54,-0.11492519,2.257801,8.813326,-1.5342462,-3.112721,0.36218804,,,,
1756,6:13:54,-0.818842,2.432583,11.044789,-2.0348296,-2.7997231,2.3902516,,344,6:18:34,14.11200027
1757,6:13:54,0.33759275,2.7773588,11.054367,-1.0403138,-2.1584601,3.0744042,,,,
1758,6:13:54,0.75659084,1.8459859,8.442213,-1.1666715,-2.808471,0.37807837,,345,6:18:35,15.08400021
1759,6:13:54,-1.228263,2.4900458,11.214784,-2.4918904,-2.2092922,0.7212781,,,,
1760,6:13:55,0.2681588,2.2003386,11.662513,-1.0734198,-2.302689,2.8421288,,346,6:18:36,16.59600048
1761,6:13:55,0.8475733,1.0606637,8.399116,-1.0013565,-3.1615305,-0.012368297,,,,
1762,6:13:55,-0.11253092,0.76616794,7.9609637,-1.6578484,-4.5421286,-0.34216434,,347,6:18:37,16.84799938
1763,6:13:55,-1.0678465,2.3463893,8.308133,-2.7158005,-2.4644046,-0.14194822,,,,
1764,6:13:55,-0.37829542,1.3288225,10.558752,-1.8697516,-3.3995419,2.3978457,,348,6:18:38,17.85600014
1765,6:13:55,-0.505192,1.8148603,10.585089,-1.5477321,-3.1617312,1.6006634,,,,
1766,6:13:55,0.31365,1.7047237,10.501289,-1.0214102,-3.00342,2.4810042,,349,6:18:39,16.77599945
1767,6:13:55,0.74701375,1.175589,9.766247,-0.6814334,-3.3939633,1.5637836,,,,
1768,6:13:55,-0.6895511,0.85236186,13.496527,-2.0135484,-3.626966,3.8356864,,350,6:18:40,15.11999931
1769,6:13:55,-0.026337024,2.7773588,8.461368,-1.0331256,-2.3487988,0.20012513,,,,
1770,6:13:56,0.05027977,0.40463245,11.12859,-1.2916785,-3.6709218,1.7659309,,351,6:18:41,13.67999983
1771,6:13:56,-0.21069619,1.4557191,7.8101244,-1.6337818,-3.5933805,-0.24653006,,,,
1772,6:13:56,0.19393626,1.1971374,10.122993,-1.4908395,-3.3635783,1.6026506,,352,6:18:42,9.612000275
1773,6:13:56,0.083799616,1.7717633,8.854029,-1.3311057,-3.0887604,0.8080694,,,,
1774,6:13:56,0.19393626,0.7302538,12.517269,-1.1026121,-3.8944767,3.3590336,,353,6:18:43,7.235999966
1775,6:13:56,-0.50758624,1.9800652,8.564321,-1.8456304,-2.4424672,-0.18350974,,,,
1776,6:13:56,0.009577099,0.45012367,10.180456,-1.4880676,-4.087636,2.0830142,,354,6:18:44,6.660000086
1777,6:13:56,-0.34477556,1.359948,9.3831625,-1.9178545,-3.3649647,0.96332437,,,,
1778,6:13:56,0.4285752,1.350371,9.953,-1.1196587,-3.2535255,1.7308724,,355,6:18:45,8.35199976
1779,6:13:56,0.038308397,0.37829542,11.171686,-1.4592707,-4.1395926,2.6377258,,,,
1780,6:13:57,0.17238778,1.4581133,9.613013,-1.4385796,-3.1584446,1.1075547,,356,6:18:46,10.6920001
1781,6:13:57,0.12929083,1.2210802,10.654523,-1.2561421,-3.5392985,2.5111957,,,,
1782,6:13:57,0.45012367,0.7805336,9.239507,-1.1681955,-3.675387,0.43798122,,357,6:18:47,12.24000034
1783,6:13:57,-0.035914123,0.08619389,9.701602,-1.4753436,-4.7891684,1.5545851,,,,
1784,6:13:57,-0.51716334,1.5203645,10.180456,-2.0670815,-3.0506067,1.2394506,,358,6:18:48,14.50800076
1785,6:13:57,0.11492519,1.3288225,10.503684,-1.2930958,-3.3384616,1.8991601,,,,
1786,6:13:57,0.2681588,0.4740664,9.90272,-1.1315765,-4.190188,1.352866,,359,6:18:49,16.16399918
1787,6:13:57,-0.33519846,1.3431882,9.450203,-1.7018036,-3.6634533,1.5145532,,,,
1788,6:13:57,0.028731298,0.37350687,11.614627,-1.3967918,-4.158794,2.5956838,,360,6:18:50,17.60399952
1789,6:13:57,-0.42139238,1.9034485,8.593052,-1.8474213,-2.835102,0.35029584,,,,
1790,6:13:58,-0.16281068,0.87630457,9.993703,-1.6233374,-3.9183152,1.3735654,,361,6:18:51,17.1
1791,6:13:58,-0.33519846,1.6975409,9.052753,-1.7203524,-3.2269,0.6569513,,,,
1792,6:13:58,0.29928434,1.2498114,10.671283,-1.0318161,-3.4446416,1.9622517,,362,6:18:52,14.68799973
1793,6:13:58,-0.34956414,0.9217958,9.948212,-1.676495,-3.7639854,1.3364263,,,,
1794,6:13:58,-0.6656084,1.23784,9.26345,-2.1966422,-3.4846485,0.68355244,,363,6:18:53,11.95199976
1795,6:13:58,0.13647367,1.4940275,10.972961,-1.2451483,-3.318976,2.1919096,,,,
1796,6:13:58,-0.32083282,1.6855695,9.282603,-1.8060576,-3.1241546,1.5381554,,364,6:18:54,9.143999863
1797,6:13:58,0.031125572,0.45491222,10.604243,-1.3344018,-4.3614335,2.2923107,,,,
1798,6:13:58,-0.32083282,1.0008069,10.7048025,-1.6754618,-3.6277251,2.1972287,,365,6:18:55,9.287999725
1799,6:13:58,0.057462595,1.2617828,8.79896,-1.324246,-3.4220536,0.37388602,,,,
1800,6:13:59,-0.035914123,0.17478207,10.546781,-1.493158,-4.354923,1.8404907,,366,6:18:56,10.6920001
1801,6:13:59,-0.7685622,1.3000913,9.636956,-2.1274664,-3.3866463,1.1232336,,,,
1802,6:13:59,0.045491222,1.6759924,9.591465,-1.4919417,-3.1552138,1.0225377,,367,6:18:57,11.84399986
1803,6:13:59,-0.505192,0.9960183,11.229149,-1.6964166,-4.03899,3.0005286,,,,
1804,6:13:59,-0.038308397,1.977671,8.645726,-1.7044064,-2.8955648,0.08285551,,368,6:18:58,11.41200027
1805,6:13:59,-0.21309046,1.1995317,10.3743925,-1.6856754,-3.6577003,2.0033307,,,,
1806,6:13:59,-0.27294734,1.7957062,9.668081,-1.8234257,-3.1139832,1.3902458,,369,6:18:59,8.568000412
1807,6:13:59,0.10055954,1.5490957,9.751882,-1.4531363,-3.149416,1.2899568,,,,
1808,6:13:59,-0.7901107,1.6089526,10.288198,-2.1510167,-3.5755577,2.3681743,,370,6:19:00,6.120000172
1809,6:13:59,0.17957062,2.22907,9.687236,-1.3919666,-2.6425576,1.0558759,,,,
1810,6:14:00,-0.24182175,2.3320236,10.338479,-1.5479387,-2.6976345,2.393602,,371,6:19:01,7.415999794
1811,6:14:00,0.05027977,2.0806248,9.126976,-1.5947737,-2.664899,0.8363169,,,,
1812,6:14:00,-0.41181526,2.439766,9.423865,-1.9952949,-2.6053834,1.1421185,,372,6:19:02,6.192000103
1813,6:14:00,-0.076616794,2.5403256,9.897932,-1.6753765,-2.4408526,1.5690947,,,,
1814,6:14:00,-0.43815228,2.1189332,10.096657,-1.9593229,-2.8190134,1.8341076,,373,6:19:03,6.87599988
1815,6:14:00,0.44294083,1.8723229,9.153313,-1.396621,-2.5811887,0.5178294,,,,
1816,6:14:00,-0.29210153,1.0391153,11.387171,-1.6672182,-3.6353283,2.8144093,,374,6:19:04,7.379999828
1817,6:14:00,0.22745611,1.838803,9.416683,-1.4035494,-2.676945,0.55339175,,,,
1818,6:14:00,0.30646718,0.6296943,11.600262,-1.1102262,-3.5786774,2.580523,,375,6:19:05,7.487999725
1819,6:14:00,-0.25858167,1.5275474,8.209969,-1.97568,-3.0574636,-0.2793126,,,,
1820,6:14:01,-0.2681588,0.81644773,11.346468,-1.7722645,-3.759735,2.4290626,,376,6:19:06,5.796000051
1821,6:14:01,0.06464542,1.786129,9.847652,-1.6788437,-2.8417876,1.5598906,,,,
1822,6:14:01,0.6488485,0.9241901,10.252285,-1.0046594,-3.617939,1.6544632,,377,6:19:07,5.615999794
1823,6:14:01,-0.5243462,1.2593886,9.550762,-2.0354064,-3.6714451,1.438029,,,,
1824,6:14:01,0.60335726,1.3886794,10.465375,-1.1467645,-3.28159,1.5294545,,378,6:19:08,4.715999794
1825,6:14:01,0.05027977,1.1564348,9.675264,-1.5084711,-3.4688454,1.2962452,,,,
1826,6:14:01,-0.34716985,1.2354459,9.47654,-1.9815254,-3.552662,1.2489086,,379,6:19:09,1.440000021
1827,6:14:01,-0.4070267,1.1277034,11.300977,-2.0363324,-3.5817237,2.5801392,,,,
1828,6:14:01,0.4740664,2.1548474,9.378374,-1.1094859,-2.727402,1.491382,,380,6:19:10,0.828000015
1829,6:14:01,0.87151605,0.82602483,9.478934,-0.82401687,-3.676952,1.0195487,,,,
1830,6:14:02,-0.5506832,0.52913475,11.042396,-1.9376385,-4.3137064,2.6478608,,381,6:19:11,1.259999979
1831,6:14:02,-0.25379312,2.2099156,9.170073,-2.0430722,-2.7736447,0.7437255,,,,
1832,6:14:02,0.7541966,1.4868447,10.7048025,-0.7694185,-3.172712,2.4681847,,382,6:19:12,0
1833,6:14:02,-0.10055954,1.489239,8.858817,-1.6390146,-3.6213622,0.89237624,,,,
1834,6:14:02,-0.505192,3.1939626,10.688043,-1.9081604,-1.8866405,2.283598,,383,6:19:13,0
1835,6:14:02,0.37590113,2.6528566,8.473338,-1.3296188,-2.46035,0.5722867,,,,
1836,6:14:02,0.25379312,1.1636176,10.067925,-1.2626637,-3.8682818,1.8645108,,384,6:19:14,1.511999953
1837,6:14:02,-0.27055305,1.4844503,9.086273,-1.8996855,-3.519364,0.8867361,,,,
1838,6:14:02,-0.32083282,2.281744,10.716774,-1.7950557,-2.8908486,2.7550704,,385,6:19:15,2.519999957
1839,6:14:02,0.58420306,1.2402344,10.43425,-0.8291701,-3.773812,2.2012348,,,,
1840,6:14:03,-0.07422252,1.5610672,9.208381,-1.6164038,-3.5028462,1.1463621,,386,6:19:16,3.92400012
1841,6:14:03,0.071828246,-0.071828246,10.242707,-1.6292222,-4.7012715,1.698293,,,,
1842,6:14:03,0.48124924,0.5027977,10.36721,-1.1543812,-4.2683306,2.1817753,,387,6:19:17,4.284000206
1843,6:14:03,0.14605077,0.7709565,9.964972,-1.4671862,-4.153599,1.4864756,,,,
1844,6:14:03,0.023942748,1.1396748,9.5483675,-1.6250575,-3.9298756,1.4822491,,388,6:19:18,4.571999931
1845,6:14:03,0.3232271,1.2091088,9.282603,-1.2734497,-3.7071235,0.74265945,,,,
1846,6:14:03,-0.54828894,1.0079896,10.601849,-1.8252331,-4.2706656,2.6646888,,389,6:19:19,3.276000094
1847,6:14:03,-0.20351335,0.93616146,9.12937,-1.830735,-3.620681,0.41875094,,,,
1848,6:14:03,-0.15083931,-0.057462595,10.858036,-1.5367379,-4.935953,2.72792,,390,6:19:20,2.951999974
1849,6:14:03,-0.062251143,0.9601042,9.670476,-1.5569038,-3.7756495,1.0027049,,,,
1850,6:14:04,-0.007182824,1.5993756,10.525232,-1.4114554,-3.1855989,2.2914727,,391,6:19:21,3.707999897
1851,6:14:04,-0.8547561,2.0231621,8.875577,-2.1212902,-3.0563838,0.6140722,,,,
1852,6:14:04,-0.2681588,1.9800652,9.560339,-1.6521304,-2.8735318,1.217685,,392,6:19:22,4.320000172
1853,6:14:04,-0.71588814,0.8739103,9.964972,-2.0602622,-3.771991,1.605738,,,,
1854,6:14:04,-0.5985687,1.6927522,10.470163,-1.8523548,-3.054629,1.9028053,,393,6:19:23,4.284000206
1855,6:14:04,-0.32801566,1.0582695,11.092675,-1.6007736,-3.4762084,2.5679922,,,,
1856,6:14:04,-0.4070267,1.7454263,9.306546,-1.6963737,-3.1417499,0.9994327,,394,6:19:24,3.996000051
1857,6:14:04,-0.102953814,1.3000913,10.371999,-1.6400219,-3.3834145,1.6887081,,,,
1858,6:14:04,-0.11492519,2.1740015,10.185245,-1.5533519,-2.7016551,1.9279394,,395,6:19:25,3.815999794
1859,6:14:04,-0.023942748,2.4254005,9.330489,-1.5325255,-2.4659193,0.8093416,,,,
1860,6:14:05,-0.5865973,2.2601955,9.682447,-1.983434,-2.8141308,1.45349,,396,6:19:26,4.139999914
1861,6:14:05,-0.10774237,2.901861,9.378374,-1.578387,-2.1496606,1.000478,,,,
1862,6:14:05,-0.16520496,2.1380875,10.393547,-1.5060359,-2.922084,1.881987,,397,6:19:27,5.111999846
1863,6:14:05,-0.6249057,3.2897336,9.265843,-1.8947258,-1.9430937,1.0697128,,,,
1864,6:14:05,-0.50040346,2.3344178,9.3831625,-1.9621102,-2.254827,0.90933406,,398,6:19:28,4.932000017
1865,6:14:05,-0.4070267,1.4413534,9.93624,-1.7576128,-3.5548234,2.0432007,,,,
1866,6:14:05,-0.6392714,2.300898,9.098245,-1.985437,-2.5840933,0.4462862,,399,6:19:29,4.932000017
1867,6:14:05,-0.49800915,1.6233183,10.692831,-1.9074211,-3.135931,2.0801861,,,,
1868,6:14:05,-0.39505535,1.7406378,9.818921,-1.9678404,-3.0561635,1.4438899,,400,6:19:30,4.535999966
1869,6:14:05,0.4740664,2.1883671,9.517242,-1.3168215,-2.6397233,1.2916788,,,,
1870,6:14:06,0.031125572,1.7645805,10.08708,-1.6428397,-3.0936096,1.4605359,,401,6:19:31,4.679999828
1871,6:14:06,-0.45012367,3.1843855,7.9944835,-2.3280559,-2.0390904,0.21597204,,,,
1872,6:14:06,0.43575802,2.1931558,10.436644,-1.3888717,-2.3900194,1.493961,,402,6:19:32,5.292000103
1873,6:14:06,-0.06464542,2.126116,9.505271,-1.7756693,-2.822766,1.7999141,,,,
1874,6:14:06,0.50758624,2.0878077,10.015251,-1.3053747,-2.5905423,1.1630118,,403,6:19:33,3.528000069
1875,6:14:06,0.19633053,2.3535721,9.550762,-1.8178164,-2.4287467,1.5739396,,,,
1876,6:14:06,0.7206767,2.281744,8.669669,-1.4262317,-2.5040696,0.33625612,,404,6:19:34,3.960000086
1877,6:14:06,0.028731298,1.5610672,10.755082,-1.7586718,-3.3995748,2.17785,,,,
1878,6:14:06,-0.021548472,3.0335462,9.380769,-2.1314836,-2.01238,1.2934242,,405,6:19:35,4.356000137
1879,6:14:06,0.7877164,2.4637089,9.349643,-1.215053,-2.2784867,1.0349764,,,,
1880,6:14:07,-0.31843856,2.0423164,10.295382,-2.1765337,-3.095347,2.2089314,,406,6:19:36,5.111999846
1881,6:14:07,-0.043096945,2.7222905,9.385557,-2.1356254,-1.913949,0.8916041,,,,
1882,6:14:07,0.43336374,1.5347302,10.733534,-1.3772498,-3.3192234,2.662615,,407,6:19:37,5.07599988
1883,6:14:07,0.03351985,2.0255566,10.652128,-1.7065874,-2.759028,1.7933776,,,,
1884,6:14:07,0.48843205,2.2362528,9.873989,-1.4639533,-2.3690393,1.310796,,408,6:19:38,3.960000086
1885,6:14:07,0.3423813,1.6616267,9.8787775,-1.5592266,-2.9404304,1.3711113,,,,
1886,6:14:07,-0.052674048,2.4948344,9.270632,-1.9740961,-2.558406,1.240905,,409,6:19:39,3.779999828
1887,6:14:07,0.93616146,2.4900458,8.734315,-1.1691043,-2.202745,0.2613081,,,,
1888,6:14:07,-0.17238778,0.9912298,11.413508,-1.9057684,-3.9416122,3.7512298,,410,6:19:40,3.023999906
1889,6:14:07,0.31125572,2.3727264,8.760652,-1.8016297,-2.308443,0.43428907,,,,
1890,6:14:08,0.15562786,1.3791022,10.661706,-1.5083144,-3.335565,1.9129066,,411,6:19:41,3.132000017
1891,6:14:08,-0.12450229,2.317658,8.353624,-2.0618885,-2.9212759,0.7191348,,,,
1892,6:14:08,1.4150164,2.3775148,8.789383,-0.8832283,-2.4237313,0.21918401,,412,6:19:42,2.98799994
1893,6:14:08,0.18675344,1.1899546,10.489318,-2.0355508,-4.065333,2.8540297,,,,
1894,6:14:08,0.17717634,2.8204558,8.880365,-1.9662027,-2.0532606,0.39915067,,413,6:19:43,1.907999897
1895,6:14:08,-0.12210801,0.7829279,13.474978,-1.8483708,-3.9518402,4.9618096,,,,
1896,6:14:08,0.75180227,2.013585,9.06233,-1.441598,-2.573368,0.53057367,,414,6:19:44,3.167999983
1897,6:14:08,1.1133378,1.2210802,9.11261,-1.1018174,-3.493901,0.91312635,,,,
1898,6:14:08,0.26337022,1.3623424,9.342461,-1.9893618,-3.662028,1.6501824,,415,6:19:45,3.492000103
1899,6:14:08,0.52913475,1.594587,10.108628,-1.5412637,-3.0355232,1.1759253,,,,
1900,6:14:09,0.45730647,2.0064023,9.148524,-1.5757154,-3.2408295,1.3301592,,416,6:19:46,3.564000034
1901,6:14:09,-0.021548472,2.3344178,8.042369,-2.1908617,-2.7250564,0.09631004,,,,
1902,6:14:09,0.5027977,0.81165916,12.273052,-1.4132073,-4.241704,4.204248,,417,6:19:47,2.628000069
1903,6:14:09,0.36871833,1.4700848,8.985713,-1.5496418,-3.3900344,0.67812616,,,,
1904,6:14:09,0.57462597,1.1109436,10.5395975,-1.3401264,-3.7345672,2.0677857,,418,6:19:48,3.92400012
1905,6:14:09,-0.021548472,1.063058,9.620196,-1.8552643,-3.9857879,1.5406964,,,,
1906,6:14:09,0.67757976,0.9337672,9.785401,-1.4603806,-3.7753415,1.813961,,419,6:19:49,4.211999846
1907,6:14:09,0.062251143,1.1396748,9.648928,-1.724205,-4.0884657,1.6771641,,,,
1908,6:14:09,-0.12689656,1.637684,8.806143,-2.038446,-3.615993,0.7034602,,420,6:19:50,6.3
1909,6:14:09,0.021548472,1.1229149,10.771842,-1.8723644,-3.760437,2.4683063,,,,
1910,6:14:10,0.19633053,1.4174107,10.953807,-1.4951205,-3.4151511,2.759971,,421,6:19:51,8.279999828
1911,6:14:10,0.38308397,0.76616794,8.576292,-1.4099945,-4.303609,0.6809724,,,,
1912,6:14:10,0.409421,1.3910737,10.0200405,-1.2374258,-3.5928407,1.3641727,,422,6:19:52,9.323999691
1913,6:14:10,0.32083282,0.339987,10.415095,-1.5712023,-4.371566,2.12415,,,,
1914,6:14:10,0.14126222,0.53392327,9.838076,-1.4865729,-4.50543,1.261932,,423,6:19:53,10.58400021
1915,6:14:10,-0.4860378,1.4198049,9.675264,-2.1198509,-3.5109406,1.2110022,,,,
1916,6:14:10,-0.36871833,1.2593886,11.808563,-1.8350308,-3.905465,3.4223676,,424,6:19:54,13.96800041
1917,6:14:10,0.32801566,1.8268317,9.888355,-1.403294,-3.2038815,1.3243155,,,,
1918,6:14:10,0.48843205,1.0439038,10.276228,-1.0623574,-3.8536744,2.000729,,425,6:19:55,14.90399952
1919,6:14:10,-0.05985687,1.7621863,8.8085375,-1.7245054,-3.4574013,0.64878255,,,,
1920,6:14:11,0.65363705,1.0798179,10.707197,-0.91549003,-3.8361359,2.2167106,,426,6:19:56,16.38000069
1921,6:14:11,-0.14365649,0.81644773,10.589877,-1.5002586,-4.152018,2.5509148,,,,
1922,6:14:11,-0.33759275,1.6544439,9.284998,-1.6768625,-3.4186432,-0.3820696,,427,6:19:57,14.25600014
1923,6:14:11,0.15802214,1.2785428,9.148524,-1.4802507,-3.9383724,1.8593266,,,,
1924,6:14:11,-0.56265455,0.6608198,12.306573,-1.7505605,-4.1451864,3.6305,,428,6:19:58,7.2
1925,6:14:11,0.56265455,1.4748733,8.265037,-1.0924515,-3.6850803,-0.04367609,,,,
1926,6:14:11,0.6392714,0.5027977,10.757477,-1.0811841,-4.3333464,2.536613,,429,6:19:59,7.559999657
1927,6:14:11,0.24421602,0.41181526,9.692024,-1.5659782,-4.741867,2.7048137,,,,
1928,6:14:11,0.50758624,1.3288225,9.522031,-1.1331413,-3.780006,1.0284384,,430,6:20:00,12.74399986
1929,6:14:12,-0.071828246,1.201926,10.017646,-1.4992611,-3.9861877,1.6182057,,,,
1930,6:14:12,0.33759275,1.0654523,10.182851,-1.2144516,-3.921476,2.0361881,,431,6:20:01,12.31200027
1931,6:14:12,-0.038308397,1.1684061,9.624985,-1.4741733,-3.9160264,1.6923004,,,,
1932,6:14:12,0.24900457,0.8356019,10.084685,-1.0991484,-4.200303,1.5082623,,432,6:20:02,12.88799973
1933,6:14:12,-0.16281068,1.1061549,9.979338,-1.5065978,-3.947602,2.054598,,,,
1934,6:14:12,0.057462595,0.8379962,10.522838,-1.2666756,-4.0490828,2.060011,,433,6:20:03,12.92399969
1935,6:14:12,0.18914771,1.4676905,9.591465,-1.1661112,-3.744246,1.5708233,,,,
1936,6:14:12,0.35914123,0.81165916,10.041589,-0.87403345,-4.1333704,1.5949364,,434,6:20:04,13.57199993
1937,6:14:12,-0.00478855,1.4964218,10.144543,-1.1902841,-3.790779,1.7305193,,,,
1938,6:14:12,0.59378016,0.96489275,9.98652,-0.9038609,-3.9952424,1.8580459,,435,6:20:05,12.38400021
1939,6:14:13,-0.102953814,1.8938714,9.814133,-1.2065909,-3.419478,1.7531109,,,,
1940,6:14:13,-0.18435916,1.7621863,9.364009,-1.4167205,-3.5181766,1.1784346,,436,6:20:06,7.956000137
1941,6:14:13,-0.023942748,1.7214836,10.38397,-1.0879161,-3.5305333,2.087607,,,,
1942,6:14:13,-0.071828246,1.8819,9.364009,-1.1999145,-3.3869896,1.298668,,437,6:20:07,9.504000378
1943,6:14:13,0.016759925,1.5227587,9.545974,-1.1834003,-3.4569142,1.1207254,,,,
1944,6:14:13,-2.257801,2.3966691,16.343319,-1.6331985,-3.3717065,4.1693654,,438,6:20:08,8.712000275
1572,6:13:31,0.39266106,1.2354459,10.63058,8.603791,0.18803626,5.1091743,,,,
1573,6:13:31,0.97446984,0.6081458,11.65533,9.313599,-0.763492,6.7940035,,439,6:20:09,8.712000275
1574,6:13:32,0.51955765,1.7119064,9.081485,8.70603,0.3328181,4.274169,,,,
1575,6:13:32,0.4070267,1.3479767,9.981731,8.579852,0.113920674,4.428626,,440,6:20:10,9.792000103
1576,6:13:32,0.052674048,2.3248408,9.184438,8.217636,0.88576925,4.4061275,,,,
1577,6:13:32,0.7134939,1.8531687,9.462174,8.831974,0.7961317,3.7675483,,441,6:20:11,10.72800007
1578,6:13:32,0.05506832,1.924997,9.701602,8.381119,0.5907043,4.361226,,,,
1579,6:13:32,0.33519846,1.5227587,10.094262,8.5693865,0.49562818,4.9367003,,442,6:20:12,9.107999897
1580,6:13:32,0.12450229,1.8004947,9.500483,8.425326,0.8405244,4.294269,,,,
1581,6:13:32,0.339987,2.0662591,9.718362,8.566483,1.0329791,4.5964985,,443,6:20:13,8.928000069
1582,6:13:32,1.010384,1.8052832,10.419884,9.21615,0.9918873,4.9948463,,,,
1583,6:13:32,1.3288225,1.3360053,9.634562,9.493852,0.2724676,4.5162497,,444,6:20:14,10.44000034
1584,6:13:33,0.9481328,1.0774237,9.921875,9.005075,0.2659467,4.461955,,,,
1585,6:13:33,0.5913859,1.4916332,8.921068,8.658119,0.7389099,3.240338,,445,6:20:15,8.964000034
1586,6:13:33,0.41181526,0.9194015,10.853248,8.5955,0.16572356,5.022111,,,,
1587,6:13:33,0.38308397,1.7047237,9.385557,8.443619,1.1718438,4.2862434,,446,6:20:16,9.179999828
1588,6:13:33,0.81165916,0.48124924,10.891556,9.024693,0.032916255,5.2232876,,,,
1589,6:13:33,0.24182175,1.5299416,9.514848,8.54022,0.87959397,4.5549307,,447,6:20:17,8.856000137
1590,6:13:33,0.5458947,0.9505271,9.526819,8.618713,0.7985316,4.060731,,,,
1591,6:13:33,0.15802214,0.73743665,11.121407,8.533069,0.49357677,5.6224732,,448,6:20:18,6.120000172
1592,6:13:33,0.05506832,0.9577099,9.454991,8.302228,0.6696537,4.799903,,,,
1593,6:13:33,0.13886794,0.7972935,10.33369,8.412091,0.719983,5.108224,,449,6:20:19,4.428000069
1594,6:13:34,0.105348095,0.9122187,9.591465,8.285127,0.65624195,4.5224023,,,,
1595,6:13:34,0.24900457,1.3096683,10.245102,8.474399,1.334572,4.71087,,450,6:20:20,3.023999906
1596,6:13:34,0.49800915,0.52674043,10.242707,8.691904,0.5533478,4.773885,,,,
1597,6:13:34,0.49082634,0.9289786,9.811738,8.686068,0.8667574,4.522986,,451,6:20:21,3.852000189
1598,6:13:34,0.84278476,0.39505535,10.257073,8.970906,0.37533727,4.713659,,,,
1599,6:13:34,0.76616794,0.84039044,9.155706,8.844688,0.9065835,3.517096,,452,6:20:22,3.239999914
1600,6:13:34,0.6153286,0.3232271,11.511673,8.879878,0.09865613,6.3386574,,,,
1601,6:13:34,0.37111259,1.4652961,7.987301,8.381803,1.5492393,2.3638148,,453,6:20:23,1.871999931
1602,6:13:34,0.31365,0.38068968,10.43425,8.61555,0.31754223,5.116369,,,,
1603,6:13:34,-0.55307746,1.2785428,10.340873,7.7683945,1.4509201,4.9072022,,454,6:20:24,5.688000154
1604,6:13:35,0.117319465,0.9194015,9.70639,8.398153,1.1042777,4.813947,,,,
1605,6:13:35,0.13647367,0.5123748,10.541992,8.562277,0.9715454,4.650687,,455,6:20:25,5.328000069
1606,6:13:35,-0.34477556,1.5586729,9.2490835,8.073614,1.695689,4.549327,,,,
1607,6:13:35,0.038308397,-0.14126222,11.873209,8.485976,0.7019255,5.840564,,456,6:20:26,7.164000034
1608,6:13:35,-0.6177229,1.2138973,9.289786,7.885881,1.2929018,4.5634766,,,,
1609,6:13:35,-0.10055954,1.1013664,10.111023,8.294867,1.7019411,3.8069222,,457,6:20:27,7.668000412
1610,6:13:35,-0.2849187,1.1636176,10.228342,8.126258,1.2430155,5.79783,,,,
1611,6:13:35,0.21787901,2.2697725,8.118986,8.386622,2.6958146,2.958187,,458,6:20:28,11.30400038
1612,6:13:35,-0.29210153,0.43575802,12.024048,8.204128,0.9619764,6.81446,,,,
1613,6:13:35,-0.13647367,2.2027328,8.758257,8.170034,2.5959666,3.4404068,,459,6:20:29,11.84399986
1614,6:13:36,-0.04070267,0.5554718,11.339286,8.377622,1.1642419,6.109358,,,,
1615,6:13:36,-0.35914123,1.8819,9.179649,8.02389,2.293935,4.211449,,460,6:20:30,13.24800024
1945,6:14:15,-0.749408,2.3918805,8.583475,-1.971452,-2.883293,0.22813797,,,,
1946,6:14:16,0.035914123,2.4876516,10.247497,-1.2689005,-2.5767674,1.9909012,,461,6:20:31,12.81599979
1947,6:14:16,-0.1987248,1.6688095,10.235525,-1.3870019,-3.367499,1.9996601,,,,
1948,6:14:16,-0.34477556,2.1835787,9.58907,-1.6233437,-3.0238082,1.2191637,,462,6:20:32,12.4920001
1949,6:14:16,0.18675344,2.020768,9.775824,-1.2250943,-3.0603628,1.6341312,,,,
1950,6:14:16,-0.076616794,1.7047237,9.780613,-1.6037366,-3.238868,1.5393025,,463,6:20:33,10.15199976
1951,6:14:16,-0.17717634,2.1332989,9.42626,-1.7144,-2.5521622,1.0176305,,,,
1952,6:14:16,-0.29689008,1.6999351,10.178062,-1.6680286,-3.1628985,2.219171,,464,6:20:34,13.42800007
1953,6:14:16,-0.057462595,2.0159793,9.536397,-1.5724686,-2.5633454,0.5103713,,,,
1954,6:14:16,-0.11013664,1.5874043,9.189227,-1.8233694,-3.0533476,1.2945079,,465,6:20:35,14.07600031
1955,6:14:16,-0.2657645,1.4964218,10.97775,-1.6673157,-2.990465,2.0519729,,,,
1956,6:14:17,-0.18914771,1.9944309,9.876384,-1.7109216,-2.6211855,1.2832124,,466,6:20:36,15.91200027
1957,6:14:17,-0.16281068,1.3264283,10.652128,-1.5505592,-3.3226135,2.0217617,,,,
1958,6:14:17,-0.21069619,2.238647,9.0288105,-1.7822831,-2.2855268,0.52368975,,467,6:20:37,16.84799938
1959,6:14:17,-0.11971374,1.7358493,12.225167,-1.5768036,-2.4736595,2.4235973,,,,
1960,6:14:17,0.17478207,2.2889266,8.375174,-1.7926915,-2.1717074,-0.17475376,,468,6:20:38,14.18400021
1961,6:14:17,0.74222517,1.1157321,10.278622,-1.1314064,-3.4986691,2.1661372,,,,
1962,6:14:17,0.39266106,1.1540405,10.965778,-1.3988286,-3.2721248,1.9650106,,469,6:20:39,14.75999966
1963,6:14:17,0.20590763,2.456526,8.612206,-1.6460863,-2.4023697,0.106691554,,,,
1964,6:14:17,-0.34716985,0.68715686,12.653743,-1.8111012,-3.580276,3.5659268,,470,6:20:40,14.36400003
1965,6:14:17,0.36632404,2.648068,8.509253,-1.4228774,-2.017127,0.1713974,,,,
1966,6:14:18,0.5818088,0.6153286,11.624205,-1.1444333,-3.487899,2.7617068,,471,6:20:41,13.78799973
1967,6:14:18,0.34716985,1.9872481,8.466156,-1.6323469,-2.4717193,0.160392,,,,
1968,6:14:18,-0.14365649,1.5730386,9.311335,-1.8211699,-3.183675,1.3009074,,472,6:20:42,11.91599979
1969,6:14:18,-0.102953814,2.2147043,9.478934,-1.7569462,-2.3313403,0.71530676,,,,
1970,6:14:18,-0.08619389,1.324034,11.420691,-1.675143,-3.1216307,2.7709718,,473,6:20:43,9.359999657
1971,6:14:18,0.13886794,2.3272352,7.963358,-1.5715873,-2.3675752,-0.37259942,,,,
1972,6:14:18,-0.057462595,1.1803775,10.099051,-1.6448902,-3.2611718,1.2995411,,474,6:20:44,11.01599979
1973,6:14:18,0.11253092,1.6496553,9.428655,-1.4613469,-2.8339787,0.98328924,,,,
1974,6:14:18,-0.21309046,1.7286664,11.863631,-1.6736958,-2.6549182,3.1023784,,475,6:20:45,11.41200027
1975,6:14:18,0.51716334,1.7981004,9.217958,-0.9437248,-2.6478877,0.33411914,,,,
1976,6:14:19,0.03351985,1.1492519,10.474953,-1.7212555,-3.3173988,2.5327384,,476,6:20:46,11.91599979
1977,6:14:19,0.05027977,1.5371244,9.438231,-1.5876224,-3.1441357,0.9323815,,,,
1978,6:14:19,-0.06464542,2.2194927,8.250671,-1.7333252,-2.3361063,-0.5779861,,477,6:20:47,11.08799973
1979,6:14:19,-0.8834874,1.664021,9.670476,-2.2460346,-3.1327631,1.2757388,,,,
1980,6:14:19,-0.11253092,2.2170985,9.981731,-1.6349971,-2.3404422,1.6786312,,478,6:20:48,9.359999657
1981,6:14:19,-0.25858167,1.3982565,9.514848,-1.6369889,-3.2991014,1.225059,,,,
1982,6:14:19,-0.24421602,1.5275474,9.976943,-1.6485459,-3.0276368,1.4029955,,479,6:20:49,8.964000034
1983,6:14:19,-0.25139886,1.7166951,9.560339,-1.7849779,-2.926057,1.7164986,,,,
1984,6:14:19,-0.86193895,1.3144568,11.856449,-2.0095456,-3.283765,3.4669063,,480,6:20:50,10.04399986
1985,6:14:19,-0.7302538,2.2506182,8.722343,-2.1275811,-2.5089014,0.6445777,,,,
1986,6:14:20,-0.7039168,0.75180227,11.413508,-2.1380525,-3.4975777,2.1840446,,481,6:20:51,11.95199976
1987,6:14:20,-0.15802214,1.9728824,9.876384,-1.952318,-2.6637087,0.37411317,,,,
1988,6:14:20,0.71588814,1.1923488,10.676071,-1.1057336,-2.9899735,2.302631,,482,6:20:52,10.9079999
1989,6:14:20,0.2777359,2.1213274,8.722343,-1.6833856,-2.76953,0.15374938,,,,
1990,6:14:20,-0.038308397,1.9537282,9.423865,-1.9706491,-2.9695287,1.719096,,483,6:20:53,15.22800007
1991,6:14:20,0.12689656,1.4772675,8.9976845,-1.7742035,-3.0746603,0.3528617,,,,
1992,6:14:20,-0.04070267,1.2689656,9.510059,-1.8178316,-3.4118237,1.2882202,,484,6:20:54,14.65200062
1993,6:14:20,-0.105348095,0.61293435,11.624205,-1.7091869,-3.7914996,2.661983,,,,
1994,6:14:20,-0.51955765,1.7023294,8.38475,-2.2117085,-2.8839326,-0.00341568,,485,6:20:55,14.22000017
1995,6:14:20,-0.5411061,0.045491222,11.93546,-2.1692605,-4.331834,3.173778,,,,
1996,6:14:21,0.102953814,2.0925963,8.300951,-1.8535086,-2.5061681,-0.13206701,,486,6:20:56,15.26399918
1997,6:14:21,0.028731298,0.70870537,10.702409,-1.6440105,-4.0071154,2.6186986,,,,
1998,6:14:21,-0.16520496,1.1253091,9.61062,-1.859142,-3.7844987,1.9168972,,487,6:20:57,17.06399918
1999,6:14:21,0.28013015,1.6448668,8.789383,-1.5164285,-3.0494084,0.34576625,,,,
2000,6:14:21,0.51955765,-0.0670397,12.517269,-0.9956175,-4.6758475,3.218101,,488,6:20:58,18.50399952
2001,6:14:21,-0.4956149,2.004008,8.655303,-2.0216577,-3.071703,0.6704238,,,,
2002,6:14:21,0.2777359,0.9217958,10.841276,-1.2151461,-3.4937248,1.6848886,,489,6:20:59,19.25999966
2003,6:14:21,-0.3902668,1.5059988,8.499676,-1.9138622,-3.5891178,1.1748381,,,,
2004,6:14:21,-0.36871833,0.3974496,10.958596,-1.7444551,-4.3110023,2.320703,,490,6:21:00,19.54799938
2005,6:14:21,-0.81644773,1.6855695,10.817333,-1.8277344,-3.5962772,2.3593328,,,,
2006,6:14:22,0.002394275,1.637684,10.343267,-1.2137257,-3.2995048,1.836052,,491,6:21:01,20.19600048
2007,6:14:22,-0.3304099,0.90024734,9.641745,-1.6732384,-3.9201226,1.6033671,,,,
2008,6:14:22,-0.40223816,1.1803775,9.926663,-1.9175094,-3.6328602,1.6774868,,492,6:21:02,18.54000034
2009,6:14:22,-0.60335726,1.2091088,9.42626,-2.236618,-3.6113613,1.1747255,,,,
2010,6:14:22,-0.35435268,0.42618093,12.2155905,-1.9557337,-4.19073,3.5534866,,493,6:21:03,13.10400038
2011,6:14:22,0.97446984,1.0247496,10.520444,-0.95960635,-3.4358037,1.8413235,,,,
2012,6:14:22,0.67279124,0.7948992,9.342461,-1.1475918,-3.8659897,1.6108757,,494,6:21:04,11.41200027
2013,6:14:22,0.5219519,0.89545876,9.308941,-1.1217206,-3.5817375,0.13875666,,,,
2014,6:14:22,-0.50998056,0.8379962,8.763046,-2.0506577,-3.9894822,0.33608675,,495,6:21:05,12.88799973
2015,6:14:22,-0.9768641,0.8044763,12.409526,-2.776545,-3.7677205,3.7052338,,,,
2016,6:14:23,0.4860378,1.2258687,8.825297,-1.3018239,-3.3480327,0.2663185,,496,6:21:06,11.37600031
2017,6:14:23,0.44294083,0.9792584,9.656111,-1.2779138,-3.6169674,1.1614829,,,,
2018,6:14:23,-0.12210801,0.098165266,11.911517,-1.9157326,-4.404865,3.8194718,,497,6:21:07,9.431999588
2019,6:14:23,0.045491222,1.0343267,9.117398,-1.5861499,-3.4620233,-0.2164702,,,,
2020,6:14:23,-0.57462597,0.019154198,10.8700075,-2.2614677,-4.6061926,2.5991497,,498,6:21:08,7.343999863
2021,6:14:23,-0.047885496,0.9696813,9.601042,-1.8003057,-3.754649,0.5474478,,,,
2022,6:14:23,-0.19393626,0.3615355,10.486923,-1.9370714,-4.3797464,2.8304079,,499,6:21:09,12.05999966
2023,6:14:23,-0.32562137,0.8786988,10.240314,-2.006121,-3.9779823,1.4109193,,,,
2024,6:14:23,0.07901107,0.8356019,9.356826,-1.7447942,-3.930848,0.794289,,500,6:21:10,10.04399986
2025,6:14:23,-0.30646718,0.4070267,9.440625,-2.1632857,-4.4557896,1.8139102,,,,
2026,6:14:24,-0.47167215,0.19393626,11.008876,-2.2783947,-4.6495323,2.4468126,,501,6:21:11,10.15199976
2027,6:14:24,0.5027977,0.51716334,9.663293,-1.4161228,-4.20477,1.2186358,,,,
2028,6:14:24,-0.2849187,0.26097596,10.072714,-2.119774,-4.6449304,2.240456,,502,6:21:12,9.323999691
2029,6:14:24,0.21787901,1.0965779,8.973742,-1.7301983,-3.9889793,0.7930072,,,,
2030,6:14:24,0.69912827,0.6392714,9.541185,-1.1239284,-4.220085,1.2368248,,503,6:21:13,10.72800007
2031,6:14:24,-0.30167863,0.20590763,11.387171,-2.0372298,-4.6275125,3.1687608,,,,
2032,6:14:24,-0.5889916,1.3862851,10.3743925,-2.2739394,-3.6045823,1.8460331,,504,6:21:14,10.54800024
2033,6:14:24,-0.052674048,1.4006507,10.012857,-1.9311788,-3.5873694,1.817519,,,,
2034,6:14:24,-0.045491222,1.1971374,9.330489,-1.9197142,-3.7257602,0.9674109,,505,6:21:15,7.415999794
2035,6:14:24,0.102953814,1.4269878,9.703996,-2.057025,-3.4177563,0.94800824,,,,
2036,6:14:25,0.6344828,0.92658436,9.63935,-1.6228611,-3.8778973,1.7465471,,506,6:21:16,7.920000172
2037,6:14:25,1.3312168,1.5467016,10.431855,-0.78170747,-3.0650668,1.970562,,,,
2038,6:14:25,0.6368771,0.48124924,11.463788,-1.4564213,-3.7632327,2.9061487,,507,6:21:17,9.25199976
2039,6:14:25,0.80208206,0.7134939,9.320911,-1.1908703,-3.9089723,0.73015726,,,,
2040,6:14:25,0.18196489,0.9241901,9.644139,-1.7734476,-3.5677211,0.85054076,,508,6:21:18,8.495999622
2041,6:14:25,0.40463245,0.8332076,9.026416,-1.6098204,-3.8511624,0.98508346,,,,
2042,6:14:25,0.6943397,1.0127783,9.474146,-1.4264437,-3.4992993,0.99488974,,509,6:21:19,8.892000103
2043,6:14:25,1.1229149,0.35435268,10.659311,-0.921111,-4.1405306,2.6242614,,,,
2044,6:14:25,0.72546524,0.9577099,9.629773,-1.2039036,-3.7352986,1.1547906,,510,6:21:20,5.292000103
2045,6:14:25,0.42378664,0.9074302,10.802968,-1.538709,-3.6713448,2.3213832,,,,
2046,6:14:26,0.82123625,1.2689656,9.929058,-0.9931563,-3.4356778,1.6406752,,511,6:21:21,4.067999983
2047,6:14:26,0.43575802,0.8092649,10.858036,-1.3651279,-3.847398,2.0921025,,,,
2048,6:14:26,0.38547826,1.0774237,9.876384,-1.3577636,-3.7376297,1.5488851,,512,6:21:22,3.6
2049,6:14:26,0.42378664,1.1516461,9.368797,-1.3240534,-3.5769672,0.8830927,,,,
2050,6:14:26,0.1699935,0.6153286,10.968173,-1.4703586,-4.0892854,2.601434,,513,6:21:23,4.535999966
2051,6:14:26,0.117319465,1.0654523,9.057542,-1.4378265,-3.7108715,0.4786994,,,,
2052,6:14:26,-0.3304099,0.84278476,11.377594,-1.9813254,-3.8575287,3.213471,,514,6:21:24,5.111999846
2053,6:14:26,-0.3232271,1.1037607,9.210775,-1.8105726,-3.7146275,0.8712373,,,,
2054,6:14:26,-0.09337672,1.1205206,9.27542,-1.6596489,-3.6390324,0.85445297,,515,6:21:25,6.803999949
2055,6:14:26,-0.87630457,0.7877164,11.245909,-2.372321,-3.912646,2.6831753,,,,
2056,6:14:27,0.14844504,1.3048798,8.945011,-1.5205091,-3.6103847,0.43039465,,516,6:21:26,9.9
2057,6:14:27,0.5506832,0.9194015,11.854054,-1.001606,-3.5767426,3.2429497,,,,
2058,6:14:27,0.15323359,1.7526091,8.684034,-1.436203,-3.3800209,0.5930926,,517,6:21:27,12.13199959
2059,6:14:27,0.43815228,3.7063375,10.276228,-0.9759321,-1.5326515,2.183474,,,,
2060,6:14:27,-0.1987248,2.0902019,9.80695,-1.6922073,-2.8609219,1.0875282,,518,6:21:28,14.79600048
2061,6:14:27,0.40223816,1.6975409,11.248303,-1.0540617,-3.182036,2.4285107,,,,
2062,6:14:27,0.7541966,1.6400782,8.607418,-0.93526345,-3.1491904,0.5673806,,519,6:21:29,13.82399969
2063,6:14:27,0.27294734,1.5036045,10.439038,-1.250389,-3.28307,1.7886051,,,,
2064,6:14:27,0.023942748,1.9824595,9.955395,-1.5550317,-2.7723436,1.459418,,520,6:21:30,15.40800076
2065,6:14:27,0.42618093,1.620924,10.491713,-1.1243665,-3.23945,2.145991,,,,
2066,6:14:28,0.6440599,2.2266755,9.268238,-0.9048773,-2.772472,1.0347629,,521,6:21:31,18.39600048
2067,6:14:28,0.53392327,1.8675344,10.30017,-0.90900344,-2.888956,1.6808491,,,,
2068,6:14:28,-0.2657645,1.6089526,10.247497,-1.6413984,-3.312383,2.1799998,,522,6:21:32,19.61999931
2069,6:14:28,0.12450229,1.8890828,10.00328,-1.2368313,-2.8779824,1.6856648,,,,
2070,6:14:28,-0.15083931,1.7741576,8.7822,-1.5282347,-2.9721458,0.34182778,,523,6:21:33,20.98799973
2071,6:14:28,-0.409421,1.5371244,11.1142235,-1.7050098,-3.367907,2.6953993,,,,
2072,6:14:28,0.3998439,2.8874955,8.0687065,-1.0046259,-2.1016023,-0.588108,,524,6:21:34,22.39199924
2073,6:14:28,0.071828246,1.637684,11.312948,-1.1240133,-3.384749,3.1200185,,,,
2074,6:14:28,0.51955765,1.9130256,9.330489,-0.8776029,-2.7370563,0.6168038,,525,6:21:35,23.47199993
2075,6:14:28,0.011971374,1.4700848,10.336084,-1.1876614,-3.4928184,2.3256137,,,,
2076,6:14:29,-0.32801566,2.0064023,9.3280945,-1.6293373,-2.7118125,0.60394347,,526,6:21:36,22.85999966
2077,6:14:29,-0.45491222,1.6664152,9.656111,-1.7189722,-3.0567143,1.2634066,,,,
2078,6:14:29,0.14365649,1.5921928,10.637763,-1.1990556,-3.0208116,2.0005996,,527,6:21:37,20.05200062
2079,6:14:29,0.27294734,1.4748733,10.336084,-0.9985603,-3.2763162,2.0991142,,,,
2080,6:14:29,0.4764607,1.3958622,10.38397,-0.6680914,-3.0592387,1.3294952,,528,6:21:38,19.18799973
2081,6:14:29,-0.6392714,1.637684,9.574705,-1.723645,-3.2913196,1.3763624,,,,
2082,6:14:29,-1.0151725,1.5395187,10.108628,-2.1642196,-2.9871733,1.2583882,,529,6:21:39,18
2083,6:14:29,-0.31125572,1.0606637,9.644139,-1.5776937,-3.728555,1.3064082,,,,
2084,6:14:29,-0.2849187,1.2330515,10.281016,-1.400835,-3.484281,1.573534,,530,6:21:40,19.51200027
2085,6:14:29,-0.40223816,1.0965779,10.527626,-1.5397266,-3.4562542,1.7402823,,,,
2086,6:14:30,-0.65124273,1.1995317,10.379181,-1.7809378,-3.4498985,1.7415879,,531,6:21:41,20.30399952
2087,6:14:30,-0.7206767,0.9385557,9.423865,-1.8939635,-3.5658123,0.774179,,,,
2088,6:14:30,-0.6847626,0.82602483,10.151725,-1.9114778,-3.8459058,1.7380753,,532,6:21:42,21.74399986
2089,6:14:30,-0.3328042,1.6089526,9.519637,-1.5393698,-3.2016296,1.1955329,,,,
2090,6:14:30,-0.5794145,1.0774237,10.922682,-1.7159704,-3.457262,2.019917,,533,6:21:43,21.6
2091,6:14:30,-0.8236305,1.7478206,9.974549,-2.029924,-2.9995525,1.3557456,,,,
2092,6:14:30,-0.72546524,0.9864412,10.740717,-2.0301166,-3.573377,2.0063117,,534,6:21:44,21.70800076
2093,6:14:30,-0.9194015,1.3671309,10.089474,-2.4063392,-3.110463,1.6242497,,,,
2094,6:14:30,-0.06464542,1.0175668,10.022434,-1.837415,-3.521829,1.5592878,,535,6:21:45,17.53199959
2095,6:14:30,0.19154198,0.6153286,9.57231,-1.882966,-3.8961475,1.6659296,,,,
2096,6:14:31,-0.052674048,0.6895511,9.9889145,-1.9502952,-3.9340222,1.5616536,,536,6:21:46,16.95600014
2097,6:14:31,0.5770202,1.2546,9.871595,-1.3988131,-3.715718,1.6546074,,,,
2098,6:14:31,1.2857256,0.4740664,10.345661,-0.73414356,-4.150569,1.6917423,,537,6:21:47,15.11999931
2099,6:14:31,0.505192,0.6273,9.158101,-1.552438,-4.3216968,1.2423265,,,,
2100,6:14:31,0.17238778,0.74222517,9.744699,-1.8595657,-4.0210695,1.2412975,,538,6:21:48,12.92399969
2101,6:14:31,-0.014365649,1.036721,10.190034,-1.8334672,-3.904883,1.8763783,,,,
2102,6:14:31,0.028731298,0.7709565,10.158908,-1.6998879,-3.8950438,1.424768,,539,6:21:49,10.15199976
2103,6:14:31,-0.5913859,-0.36392978,10.204399,-2.2588792,-5.3490176,2.1963289,,,,
2104,6:14:31,-0.30646718,-0.28970724,10.218765,-2.0322824,-5.4053698,2.1223223,,540,6:21:50,10.15199976
2105,6:14:31,-0.014365649,0.87151605,10.36721,-1.7751615,-4.3511763,2.0947244,,,,
2106,6:14:32,0.5770202,1.1492519,8.27222,-1.5863078,-4.212389,0.7822234,,541,6:21:51,10.94399986
2107,6:14:32,0.05027977,-0.61293435,11.289005,-1.9634928,-5.8606176,3.0557487,,,,
2108,6:14:32,0.6296943,0.888276,9.627379,-1.5976719,-4.183825,1.4221501,,542,6:21:52,9.107999897
2109,6:14:32,-0.29689008,0.9074302,10.242707,-2.2472014,-4.3753424,2.2566586,,,,
2110,6:14:32,-0.67279124,1.7358493,9.105427,-2.704949,-3.533976,1.1532557,,543,6:21:53,8.028000069
2111,6:14:32,-0.15323359,0.9313729,10.38397,-2.0304425,-4.1911,1.9803101,,,,
2112,6:14:32,0.37829542,1.1085492,11.193234,-1.445137,-3.872853,2.8963418,,544,6:21:54,7.235999966
2113,6:14:32,-0.24421602,1.4772675,9.308941,-2.0826497,-3.7513947,1.4454033,,,,
2114,6:14:32,-0.5985687,1.7981004,8.930645,-2.5746205,-3.5185547,0.8695859,,545,6:21:55,3.635999966
2115,6:14:32,0.0670397,1.4054393,10.048771,-1.9911556,-3.764317,1.8410289,,,,
2116,6:14:33,-0.14365649,1.3048798,11.861238,-2.0276814,-3.6099248,3.452449,,546,6:21:56,3.060000086
2117,6:14:33,0.23942748,1.8483802,8.006455,-1.8382717,-3.2072659,0.09922457,,,,
2118,6:14:33,-0.41181526,0.50040346,10.5946665,-2.41067,-4.3185487,2.0826564,,547,6:21:57,5.579999828
2119,6:14:33,-0.002394275,1.5658557,9.648928,-2.10362,-3.5231533,1.7398494,,,,
2120,6:14:33,0.48843205,1.3431882,9.771035,-1.5948509,-3.1877294,1.0661504,,548,6:21:58,7.235999966
2121,6:14:33,-0.888276,1.1037607,10.328901,-2.6209362,-4.0363374,2.4446921,,,,
2122,6:14:33,-0.48843205,1.4245936,9.466963,-2.4964948,-3.1574292,0.77388555,,549,6:21:59,2.844000077
2123,6:14:33,-0.14126222,0.7015225,10.865219,-2.0718243,-4.008856,2.5872543,,,,
2124,6:14:33,-0.3328042,0.8930645,10.345661,-2.3090215,-3.7889,2.045283,,550,6:22:00,5.579999828
2125,6:14:33,0.52674043,0.7781393,10.841276,-1.7779487,-3.8551185,2.5419548,,,,
2126,6:14:34,0.55307746,1.5395187,9.27542,-1.8124883,-3.262048,1.1667777,,551,6:22:01,5.364000034
2127,6:14:34,0.016759925,1.4365649,8.509253,-2.391848,-3.6185546,0.48059043,,,,
2128,6:14:34,0.40463245,1.8699286,8.777411,-2.120784,-2.9711199,0.5612942,,552,6:22:02,10.15199976
2129,6:14:34,0.31843856,1.5467016,11.018453,-1.9809542,-3.2816403,2.6708698,,,,
2130,6:14:34,0.090982445,1.3048798,9.871595,-2.0953581,-3.5215542,1.7358062,,553,6:22:03,10.33199959
2131,6:14:34,-0.06943397,1.5754328,9.651321,-2.4097736,-3.0124547,1.0407226,,,,
2132,6:14:34,0.12929083,0.6201172,11.061549,-2.1381612,-3.8580887,2.6200795,,554,6:22:04,7.595999622
2133,6:14:34,0.11013664,1.1037607,9.466963,-2.1602092,-3.441138,0.8357549,,,,
2134,6:14:34,0.52674043,1.2186859,10.443827,-1.8136606,-3.4136558,2.1545396,,555,6:22:05,11.44800024
2135,6:14:34,0.2466103,1.350371,9.033599,-2.162066,-3.1305308,0.6403306,,,,
2136,6:14:35,0.44533512,1.1013664,9.514848,-1.907892,-3.471273,1.2980025,,556,6:22:06,6.371999931
2137,6:14:35,-0.26337022,1.7693691,10.388759,-2.3228447,-2.762141,1.5016409,,,,
2138,6:14:35,-0.80208206,1.0654523,10.585089,-2.795335,-3.4970825,1.9535315,,557,6:22:07,6.371999931
2139,6:14:35,0.1987248,1.3288225,10.005674,-2.163287,-3.260709,1.3098717,,,,
2140,6:14:35,0.6440599,1.4269878,10.453403,-1.6601108,-2.8815293,2.1489384,,558,6:22:08,5.97599988
2141,6:14:35,0.65363705,0.5770202,9.912297,-1.6884807,-3.5567737,1.2170165,,,,
2142,6:14:35,-0.28013015,1.1133378,9.938635,-2.3887792,-3.6028225,1.930775,,559,6:22:09,7.092000103
2143,6:14:35,-0.19154198,1.7478206,9.148524,-2.4828918,-2.6365433,0.640141,,,,
2144,6:14:35,0.17717634,0.9624985,10.498895,-1.958334,-3.747951,2.3127027,,560,6:22:10,7.45199976
2145,6:14:35,0.45012367,1.3360053,9.395134,-1.9200277,-2.9409719,0.8051715,,,,
2146,6:14:36,0.2777359,0.6895511,10.800573,-2.222868,-3.4186702,2.3219173,,561,6:22:11,5.903999949
2147,6:14:36,0.86912173,1.2234744,9.253872,-1.8250767,-3.2137008,0.6963773,,,,
2148,6:14:36,0.91461295,0.9194015,9.72315,-1.6629512,-3.2012596,0.9637848,,562,6:22:12,4.860000086
2149,6:14:36,-0.14605077,0.91461295,9.775824,-2.7208953,-3.6201324,1.6138833,,,,
2150,6:14:36,0.5698374,1.3360053,9.955395,-2.077114,-2.8186014,0.9008893,,563,6:22:13,4.679999828
2151,6:14:36,0.5698374,0.67757976,11.348863,-1.7157414,-3.596157,3.2070909,,,,
2152,6:14:36,0.65124273,1.1947432,9.000079,-1.829375,-3.0628612,0.56042796,,564,6:22:14,5.292000103
2153,6:14:36,0.25858167,0.76616794,9.720756,-2.2108572,-3.6105962,1.4093524,,,,
2154,6:14:36,0.023942748,1.1396748,9.775824,-2.300684,-3.2253525,1.0291936,,565,6:22:15,7.343999863
2155,6:14:36,0.045491222,0.9768641,10.896344,-2.23906,-3.2926211,2.3544164,,,,
2156,6:14:37,0.5698374,1.3168511,9.28021,-1.8683493,-2.9230695,0.8930925,,566,6:22:16,9
2157,6:14:37,0.31125572,0.08619389,11.135772,-1.9692118,-4.1136827,2.5630963,,,,
2158,6:14:37,-0.117319465,1.0295382,9.055147,-2.4045973,-3.308239,0.5070461,,567,6:22:17,11.19599962
2159,6:14:37,-0.6273,-0.65124273,12.117425,-2.508819,-4.7068205,3.2891974,,,,
2160,6:14:37,-0.009577099,1.0391153,9.962578,-2.01351,-3.317826,1.7838123,,568,6:22:18,7.992000103
2161,6:14:37,0.8643332,0.8739103,9.462174,-1.3911669,-3.4057946,0.8423643,,,,
2162,6:14:37,0.81644773,0.82123625,9.598648,-1.6003145,-3.8102279,1.4382746,,569,6:22:19,9.25199976
2163,6:14:37,1.3120626,1.5874043,7.2714124,-1.8395497,-2.5556834,-0.9485407,,,,
2164,6:14:37,0.2657645,1.8675344,9.2490835,-2.7140777,-2.5947652,0.9310993,,570,6:22:20,5.039999914
2165,6:14:37,1.297697,1.8411974,9.294575,-1.6675295,-2.5013053,1.0732867,,,,
2166,6:14:38,0.026337024,2.0087965,9.227535,-2.48604,-2.334351,0.74032354,,571,6:22:21,8.640000343
2167,6:14:38,-0.28731298,0.82123625,11.770255,-2.14086,-3.8320076,3.5031753,,,,
2168,6:14:38,0.7446195,-0.25858167,12.100665,-1.2742192,-4.568099,3.9809597,,572,6:22:22,7.776000309
2169,6:14:38,0.37829542,0.64166564,10.38397,-1.3089051,-3.7212977,1.7313713,,,,
2170,6:14:38,-0.071828246,0.41181526,9.3280945,-1.9554962,-3.9266257,0.85720575,,573,6:22:23,7.020000172
2171,6:14:38,-0.5027977,0.749408,10.00328,-2.575816,-3.7062964,1.3889276,,,,
2172,6:14:38,-0.36632404,1.7047237,10.175668,-2.2325504,-2.7853076,1.7080923,,574,6:22:24,6.479999828
2173,6:14:38,0.84278476,0.083799616,9.862018,-1.359489,-3.9304268,1.391623,,,,
2174,6:14:38,0.3902668,1.0486923,8.767835,-1.5356554,-3.372336,0.2492939,,575,6:22:25,5.220000172
2175,6:14:38,0.13168511,0.6608198,9.799767,-1.9442116,-3.5823154,1.0995909,,,,
2176,6:14:39,-0.11492519,1.3647367,9.277815,-2.1961484,-2.8755639,0.84152,,576,6:22:26,3.096000051
2177,6:14:39,-0.5506832,1.3120626,11.186052,-2.3846738,-3.2510724,2.4939606,,,,
2178,6:14:39,-0.41181526,1.7262721,11.298583,-2.2923388,-3.052468,3.0700989,,577,6:22:27,1.871999931
2179,6:14:39,0.035914123,2.935381,10.371999,-1.9372021,-2.0530896,2.1969726,,,,
2180,6:14:39,0.97446984,2.4062462,9.744699,-1.2797415,-2.0645337,1.4289925,,578,6:22:28,0
2181,6:14:39,1.1612233,1.1348863,10.005674,-1.0712025,-3.3315468,1.6584866,,,,
2182,6:14:39,0.8236305,0.76616794,9.550762,-1.3138698,-3.8245063,1.3403578,,579,6:22:29,0.720000011
2183,6:14:39,0.27055305,2.2075214,8.4781275,-1.7457222,-2.6073964,-0.23342104,,,,
2184,6:14:39,-0.57462597,2.2362528,10.063137,-2.4049869,-2.6948786,1.9098068,,580,6:22:30,2.123999906
2185,6:14:39,0.13168511,2.142876,9.694419,-1.7958158,-2.574265,1.1433519,,,,
2186,6:14:40,0.057462595,1.7071179,10.865219,-1.978781,-2.9107876,2.8439403,,581,6:22:31,3.419999957
2187,6:14:40,0.56744313,2.5283542,9.2419,-1.4080536,-2.2288184,0.78608024,,,,
2188,6:14:40,0.818842,1.802889,9.270632,-1.1388662,-2.853974,1.2516757,,582,6:22:32,3.92400012
2189,6:14:40,0.2657645,1.6688095,10.652128,-1.635758,-2.9524443,1.95559,,,,
2190,6:14:40,0.65124273,1.951334,8.772623,-1.3539823,-2.9127853,0.44828948,,583,6:22:33,4.247999811
2191,6:14:40,1.3527653,1.4198049,11.119012,-0.6567348,-3.1754632,2.8364987,,,,
2192,6:14:40,1.4940275,1.4916332,9.052753,-0.5714395,-3.1800816,0.5651425,,584,6:22:34,4.571999931
2193,6:14:40,0.5818088,0.8044763,12.304178,-1.1104815,-3.7173285,3.6608434,,,,
2194,6:14:40,1.1684061,2.1452703,8.035186,-0.77135205,-2.731587,-0.5858065,,585,6:22:35,4.643999863
2195,6:14:40,1.2689656,1.0726352,11.870814,-0.42292365,-3.3638973,3.357193,,,,
2196,6:14:41,1.498816,1.2091088,8.554744,-0.22656298,-3.2702007,-0.15104437,,586,6:22:36,3.707999897
2197,6:14:41,0.42139238,1.0678465,10.415095,-1.0142868,-3.5433202,2.4134781,,,,
2198,6:14:41,0.5985687,1.2210802,9.811738,-0.75663936,-3.6266427,1.300147,,587,6:22:37,3.419999957
2199,6:14:41,1.498816,1.0127783,10.68086,0.20730719,-3.5795293,1.6412566,,,,
2200,6:14:41,1.1660118,0.7877164,9.909904,-0.001674199,-3.8854232,1.4988415,,588,6:22:38,4.356000137
2201,6:14:41,1.3144568,0.9529214,10.970567,0.2514879,-3.6347861,1.8625809,,,,
2202,6:14:41,1.4652961,0.2777359,9.28021,0.51092046,-4.6609416,1.2109206,,589,6:22:39,4.967999983
2203,6:14:41,0.8978531,0.7829279,11.051972,-0.09510271,-3.8892949,1.9696167,,,,
2204,6:14:41,1.4748733,1.1947432,9.196409,0.74950236,-3.8246217,0.96053183,,590,6:22:40,4.860000086
2205,6:14:41,1.8603516,0.16041641,9.70639,1.204036,-4.5711894,1.2724006,,,,
2206,6:14:42,0.8140534,0.5650489,10.836488,0.5050634,-4.3126497,2.242103,,591,6:22:41,5.652000189
2207,6:14:42,0.845179,1.3312168,9.984126,0.58212596,-3.6288624,1.3043234,,,,
2208,6:14:42,1.525153,0.30167863,10.063137,1.3319232,-4.5258527,1.9288969,,592,6:22:42,5.184000206
2209,6:14:42,1.158829,0.93616146,8.904308,1.3859096,-4.1055684,0.31204635,,,,
2210,6:14:42,0.31365,0.97446984,10.515655,0.61011904,-4.1319323,2.6121302,,593,6:22:43,4.392000103
2211,6:14:42,1.2354459,1.1396748,8.6433325,1.7956827,-3.985686,-0.22947712,,,,
2212,6:14:42,0.8092649,0.3040729,10.079897,1.5079038,-4.672351,2.03254,,594,6:22:44,2.7
2213,6:14:42,0.31604427,1.6759924,9.601042,1.1476228,-3.3315225,0.85762197,,,,
2214,6:14:42,1.1181264,0.44533512,11.147743,1.8999478,-4.3881035,2.8011525,,595,6:22:45,2.880000043
2215,6:14:42,1.0534809,0.81644773,9.957788,2.1272411,-4.221936,1.8664739,,,,
2216,6:14:43,0.8547561,0.22745611,10.925076,1.9396445,-4.4078684,2.3108275,,596,6:22:46,4.067999983
2217,6:14:43,0.88588166,0.39266106,9.399923,2.1419847,-4.5239105,1.0812032,,,,
2218,6:14:43,0.44533512,0.37350687,9.869201,1.8926977,-4.3293486,1.2730025,,597,6:22:47,2.951999974
2219,6:14:43,-0.18435916,1.1157321,9.44302,1.4548088,-3.6991372,0.99097097,,,,
2220,6:14:43,0.26097596,1.3575538,9.907509,2.1340683,-3.2878392,1.423116,,598,6:22:48,3.060000086
2221,6:14:43,0.6344828,-0.12929083,11.336891,2.6211267,-4.587926,2.4463754,,,,
2222,6:14:43,0.44054657,1.5610672,8.727132,2.526011,-3.246907,0.41809148,,599,6:22:49,3.060000086
2223,6:14:43,1.1708003,0.5363176,11.399142,3.2590942,-3.8604417,2.8370264,,,,
2224,6:14:43,0.88109314,-0.098165266,10.831699,3.2087376,-4.7830906,2.8171794,,600,6:22:50,3.743999863
2225,6:14:43,0.7733508,0.50040346,9.115005,2.930384,-3.8046002,0.24275199,,,,
2226,6:14:44,0.002394275,0.63208854,9.601042,2.4165967,-3.8938923,1.2188455,,601,6:22:51,3.960000086
2227,6:14:44,0.17957062,0.38068968,10.518049,2.5451462,-3.6795983,1.429055,,,,
2228,6:14:44,0.32801566,0.80208206,9.574705,2.8920956,-3.327888,1.0647343,,602,6:22:52,3.419999957
2229,6:14:44,0.5985687,0.4860378,10.10384,3.2528472,-3.3414912,1.2966511,,,,
2230,6:14:44,0.70631105,-0.32801566,11.183658,3.4985871,-4.1052628,2.7251124,,603,6:22:53,3.096000051
2231,6:14:44,0.8571504,0.69673395,9.629773,3.7734764,-3.1488085,1.2051648,,,,
2232,6:14:44,0.28731298,0.43575802,10.623397,3.3249767,-3.2242444,1.8578144,,604,6:22:54,3.276000094
2233,6:14:44,0.038308397,0.9289786,9.217958,2.974338,-2.899095,1.1338904,,,,
2234,6:14:44,0.56265455,0.9337672,9.538791,3.582395,-2.6117373,0.69547164,,605,6:22:55,3.960000086
2235,6:14:44,0.28013015,0.7637737,9.4095,3.3227959,-2.7403972,1.1134456,,,,
2236,6:14:45,0.84039044,0.35674694,10.745505,4.0918226,-3.1760306,1.9523065,,606,6:22:56,5.184000206
2237,6:14:45,0.8547561,0.9026416,10.886767,4.1663294,-2.5502257,2.2288773,,,,
2238,6:14:45,0.86912173,1.403045,8.672064,3.9462993,-2.1146264,0.33764163,,607,6:22:57,2.951999974
2239,6:14:45,0.18675344,2.0710478,10.022434,3.6132488,-1.3702047,0.9633315,,,,
2240,6:14:45,0.05027977,1.6424725,9.569917,3.2288659,-1.5014522,0.9722562,,608,6:22:58,5.507999897
2241,6:14:45,0.75180227,1.2785428,10.058349,3.9450576,-1.4367697,0.9824622,,,,
2242,6:14:45,0.82602483,0.7110996,11.346468,4.291888,-2.0341756,2.3412273,,609,6:22:59,0
2243,6:14:45,0.5794145,0.76137936,9.955395,4.0273514,-2.237884,1.2498391,,,,
2244,6:14:45,0.12210801,1.2234744,8.700794,3.4593234,-1.8384912,0.40894604,,610,6:23:00,3.348000026
2245,6:14:45,-0.10055954,1.0510867,10.278622,3.373715,-1.8361206,0.9524358,,,,
2246,6:14:46,0.28731298,0.76616794,10.855642,3.8137734,-2.208113,2.2988312,,611,6:23:01,0
2247,6:14:46,0.6656084,1.0295382,10.099051,4.072948,-1.8635727,1.4953128,,,,
2248,6:14:46,0.52674043,0.7948992,8.719949,3.9210389,-2.1316724,0.20234899,,612,6:23:02,0
2249,6:14:46,-0.05027977,0.21787901,12.100665,3.619339,-2.3650844,3.1144145,,,,
2250,6:14:46,0.071828246,1.4269878,8.303345,3.4973187,-1.42605,-0.21822433,,613,6:23:03,0
2251,6:14:46,-0.23463893,0.7853221,11.11183,3.2793667,-1.7171297,1.8039287,,,,
2252,6:14:46,0.076616794,0.098165266,9.933846,3.4915802,-2.8172479,1.7416575,,614,6:23:04,2.951999974
2253,6:14:46,-0.45730647,0.6847626,9.505271,2.8514216,-1.8664322,0.5864741,,,,
2254,6:14:46,-0.28252444,0.5913859,10.422278,3.155348,-2.112019,1.5237868,,615,6:23:05,3.276000094
2255,6:14:46,-0.10774237,1.4676905,8.978531,3.1090546,-1.5155721,0.34920883,,,,
2256,6:14:47,0.06464542,0.50040346,12.18207,3.594951,-2.1556127,3.0949101,,616,6:23:06,2.807999897
2257,6:14:47,0.7877164,1.4772675,8.696006,3.970445,-1.2239742,0.23794584,,,,
2258,6:14:47,0.64166564,0.19154198,11.198023,4.051959,-2.7556767,2.0516303,,617,6:23:07,4.860000086
2259,6:14:47,0.19154198,0.48843205,10.149331,3.4212875,-2.061952,1.2407986,,,,
2260,6:14:47,-0.19393626,0.9960183,9.304152,2.9356697,-2.0415528,0.68847066,,618,6:23:08,4.932000017
2261,6:14:47,0.21309046,1.1779832,9.031204,3.309663,-1.8892663,-0.05820818,,,,
2262,6:14:47,1.2593886,0.6464542,10.644946,4.267511,-1.4047406,2.1035607,,619,6:23:09,6.696000051
2263,6:14:47,-0.56744313,-1.5993756,12.059962,2.7221346,-4.4504776,2.7006075,,,,
2264,6:14:47,-0.8379962,0.9313729,9.012051,2.0232892,-1.8953902,0.61778545,,620,6:23:10,7.884000206
2265,6:14:47,1.201926,1.8292259,8.05434,4.0802484,-1.5318303,-0.98347664,,,,
2266,6:14:48,1.637684,-0.29689008,11.578713,4.885743,-3.0955462,2.1199718,,621,6:23:11,7.884000206
2267,6:14:48,0.4932206,0.43336374,9.684841,3.6576638,-2.6963968,0.8655571,,,,
2268,6:14:48,0.083799616,0.19393626,10.829305,3.2238255,-2.966314,2.2032166,,622,6:23:12,7.45199976
2269,6:14:48,-0.00478855,-0.40223816,9.306546,3.0756488,-3.410174,0.3178405,,,,
2270,6:14:48,-0.84996754,-1.1396748,11.3344965,2.2304387,-4.4312096,2.807766,,623,6:23:13,5.688000154
2271,6:14:48,0.22745611,0.117319465,9.435837,2.943354,-3.182597,1.006679,,,,
2272,6:14:48,1.324034,0.52913475,9.150918,4.332625,-2.8507428,0.3983225,,624,6:23:14,3.888000154
2273,6:14:48,0.92658436,-2.1213274,11.755889,4.3430114,-5.2760167,2.975004,,,,
2274,6:15:22,-0.86193895,0.56744313,10.106234,3.2499516,-4.1670313,2.788863,,625,6:23:15,3.635999966
2275,6:15:22,-0.86193895,0.56744313,10.106234,3.2499516,-4.1670313,2.788863,,,,
2276,6:15:22,-0.86193895,0.56744313,10.106234,3.2499516,-4.1670313,2.788863,,626,6:23:16,3.743999863
2277,6:15:22,0.25379312,-0.23942748,10.419884,3.2499516,-4.1670313,2.788863,,,,
2278,6:15:22,0.20111908,-0.047885496,9.842864,-1.3962471,6.680977,16.378395,,627,6:23:17,3.707999897
2279,6:15:22,-0.42378664,0.09577099,10.678466,-2.325873,6.9296064,17.694471,,,,
2280,6:15:22,0.46209505,0.22266756,9.624985,-1.4264315,7.1695757,16.3838,,628,6:23:18,4.464000034
2281,6:15:22,-0.14126222,-0.3519584,10.599455,-1.8908913,6.354825,17.675179,,,,
2282,6:15:22,0.03351985,0.026337024,9.881172,-1.774362,6.753012,16.637823,,629,6:23:19,3.564000034
2283,6:15:23,0.20111908,0.28252444,10.26665,-1.7051408,7.1292686,17.369808,,,,
2284,6:15:23,0.38547826,0.05985687,9.725544,-1.2889693,6.8811965,16.309961,,630,6:23:20,2.41200006
2285,6:15:23,0.08619389,0.1699935,10.582695,-1.550555,6.9635406,17.194016,,,,
2286,6:15:23,-0.028731298,0.28970724,9.481328,-1.8743197,7.333954,16.165707,,631,6:23:21,1.440000021
2287,6:15:23,0.09337672,-0.20351335,11.116618,-1.4905566,6.5990133,17.55056,,,,
2288,6:15:23,-0.39266106,0.3423813,9.273026,-2.3105693,7.371133,16.042076,,632,6:23:22,2.123999906
2289,6:15:23,-0.083799616,1.0702409,10.541992,-1.9037155,8.036589,16.646599,,,,
2290,6:15:23,0.06943397,1.8675344,9.634562,-1.7645441,9.03507,16.38892,,633,6:23:23,1.65600003
2291,6:15:23,0.2944958,1.0510867,9.888355,-1.641489,8.17065,16.588192,,,,
2292,6:15:23,0.25379312,1.2522057,10.106234,-1.6030613,8.190161,17.244532,,634,6:23:24,1.188000047
2293,6:15:24,-0.031125572,0.8739103,10.45101,-1.711546,7.835823,17.575312,,,,
2294,6:15:24,0.6488485,0.70870537,9.562734,-0.99741775,7.684274,16.311092,,635,6:23:25,1.04399997
2295,6:15:24,0.53871185,0.9241901,9.727939,-0.93339664,7.838965,16.642231,,,,
2296,6:15:24,0.038308397,0.86193895,9.976943,-1.5298638,7.8030596,16.890787,,636,6:23:26,1.980000043
2297,6:15:24,0.45012367,0.4644893,10.304958,-0.99502754,7.343026,17.263176,,,,
2298,6:15:24,0.2466103,1.4581133,9.167678,-1.2560598,8.232056,16.21017,,637,6:23:27,2.448000026
2299,6:15:24,0.19393626,0.93616146,10.252285,-1.2439061,8.031531,16.7682,,,,
2300,6:15:24,-0.052674048,0.4764607,11.260275,-1.4579937,7.3457894,18.06751,,638,6:23:28,2.951999974
2301,6:15:24,0.07901107,1.2091088,9.222747,-1.4762629,7.9957643,16.65182,,,,
2302,6:15:24,-0.009577099,0.7853221,10.161303,-1.4963832,7.8398094,16.639715,,639,6:23:29,4.17599988
2303,6:15:25,-0.15562786,1.185166,9.804555,-1.6837614,8.076492,16.691488,,,,
2304,6:15:25,0.18675344,0.9433443,10.439038,-1.23677,7.807872,16.942505,,640,6:23:30,5.4
2305,6:15:25,0.2561874,0.9505271,9.933846,-1.233373,7.7468247,16.806875,,,,
2306,6:15:25,0.11253092,1.1181264,9.253872,-1.335008,7.9596725,16.084545,,641,6:23:31,5.688000154
2307,6:15:25,0.007182824,0.7350424,10.812545,-1.5861088,7.5383224,17.908579,,,,
2308,6:15:25,0.18914771,1.201926,9.996098,-1.2869565,8.072395,16.629696,,642,6:23:32,6.767999983
2309,6:15:25,0.11013664,1.0750294,9.96976,-1.3620874,7.8579187,16.947304,,,,
2310,6:15:25,0.14365649,0.84996754,9.859624,-1.3141285,7.723716,16.42082,,643,6:23:33,8.243999863
2311,6:15:25,0.5243462,0.85236186,10.257073,-0.89913064,7.4828835,17.442142,,,,
2312,6:15:25,0.35914123,0.8930645,9.943423,-1.2286808,7.7161,16.848042,,644,6:23:34,9.576000309
2313,6:15:26,0.48124924,0.9074302,9.979338,-0.99898356,7.680494,17.100943,,,,
2314,6:15:26,0.4956149,0.9313729,10.288198,-0.9896752,7.839982,16.76528,,645,6:23:35,9.720000172
2315,6:15:26,0.4644893,0.7709565,9.545974,-1.0154598,7.5456877,16.497234,,,,
2316,6:15:26,-0.12929083,0.9385557,10.029617,-1.7712431,7.740194,17.057041,,646,6:23:36,9.179999828
2317,6:15:26,-0.75180227,0.80208206,9.866806,-2.448216,7.448989,16.868204,,,,
2318,6:15:26,0.098165266,0.9912298,10.05356,-1.8594784,7.595838,16.949345,,647,6:23:37,7.992000103
2319,6:15:26,0.90982443,0.9816527,10.077502,-0.80380404,7.4957705,17.342512,,,,
2320,6:15:26,0.6488485,0.49800915,10.745505,-0.9822261,7.082408,17.766008,,648,6:23:38,8.604000378
2321,6:15:26,0.5027977,0.92658436,9.792584,-1.2450039,7.6036615,16.849396,,,,
2322,6:15:26,0.51716334,0.8834874,9.718362,-1.3479644,7.611556,16.766273,,649,6:23:39,9.9
2323,6:15:27,0.11492519,0.9984126,9.912297,-1.7483143,7.731253,16.702103,,,,
2324,6:15:27,-0.12450229,1.3623424,9.811738,-2.065713,8.032191,16.7008,,650,6:23:40,10.44000034
2325,6:15:27,0.038308397,1.9321798,9.785401,-1.9821575,8.508105,16.640568,,,,
2326,6:15:27,0.3615355,1.8747171,10.558752,-1.652811,8.584642,17.494972,,651,6:23:41,12.05999966
2327,6:15:27,0.71588814,1.9992194,9.759064,-1.2346215,8.662011,16.580872,,,,
2328,6:15:27,0.5411061,2.3631492,9.380769,-1.4607999,9.10273,16.295195,,652,6:23:42,12.27600031
2329,6:15:27,0.6105401,1.620924,11.097464,-1.4650135,8.423834,17.9191,,,,
2330,6:15:27,0.15323359,2.1835787,8.207574,-1.8723557,8.596319,15.2510805,,653,6:23:43,11.55600014
2331,6:15:27,-0.30167863,1.759792,10.915499,-2.6403701,8.661129,17.54916,,,,
2332,6:15:27,0.23224466,1.6544439,9.42626,-1.9421974,8.30665,15.914762,,654,6:23:44,9.25199976
2333,6:15:28,0.11253092,1.3144568,10.386364,-2.2892723,8.022696,17.375864,,,,
2334,6:15:28,0.75180227,1.0606637,9.2490835,-1.490304,7.5031576,16.366802,,655,6:23:45,5.72400012
2335,6:15:28,0.46927786,0.4764607,11.2794285,-1.6062279,6.919423,17.8413,,,,
2336,6:15:28,0.43575802,0.7781393,9.684841,-2.0648296,7.2842507,16.6022,,656,6:23:46,5.652000189
2337,6:15:28,0.30167863,0.7733508,9.962578,-2.0101619,7.2250185,16.383034,,,,
2338,6:15:28,0.28731298,0.4070267,10.122993,-2.2293375,6.758249,17.5679,,657,6:23:47,3.888000154
2339,6:15:28,0.26097596,1.0965779,9.555551,-2.3174486,7.4714723,16.436684,,,,
2340,6:15:28,0.6249057,0.30167863,10.822123,-2.1173704,6.750425,18.021862,,658,6:23:48,3.31200006
2341,6:15:28,0.4764607,0.7039168,9.5794935,-2.1216605,7.0231376,16.431293,,,,
2342,6:15:28,0.17238778,0.70870537,10.130177,-2.5950477,6.8823776,17.322443,,659,6:23:49,1.691999996
2343,6:15:29,-0.43815228,1.4964218,10.132571,-3.3418891,7.759744,17.011318,,,,
2344,6:15:29,-0.41420954,1.7262721,9.720756,-3.4563804,7.9676805,16.64568,,660,6:23:50,0.9
2345,6:15:29,-0.28252444,1.2498114,10.678466,-3.333939,7.532077,17.417992,,,,
2346,6:15:29,-0.2083019,1.3934679,9.529214,-3.2306983,7.5289965,16.556955,,661,6:23:51,1.440000021
2347,6:15:29,-0.33519846,1.3886794,9.6585045,-3.4781616,7.554722,16.811407,,,,
2348,6:15:29,-0.4285752,1.132492,10.180456,-3.562671,7.2448196,17.245712,,662,6:23:52,2.267999983
2349,6:15:29,-0.48124924,1.5826156,9.184438,-3.513269,7.7177763,16.032658,,,,
2350,6:15:29,-0.6751855,1.1157321,10.78142,-3.8137772,7.066542,18.1342,,663,6:23:53,2.735999966
2351,6:15:29,-0.12450229,1.6544439,9.761458,-3.2220466,7.8797073,16.463528,,,,
2352,6:15:29,-0.36871833,1.2498114,9.7135725,-3.3044655,7.4101806,16.956089,,664,6:23:54,4.103999949
2353,6:15:30,-1.2402344,1.3455825,9.715967,-4.294019,7.5990095,16.534475,,,,
2354,6:15:30,-1.2522057,1.1205206,10.146936,-4.3538666,7.3255477,17.269209,,665,6:23:55,5.328000069
2355,6:15:30,-0.7446195,1.1612233,10.1541195,-3.7428055,7.4344826,16.860823,,,,
2356,6:15:30,-0.67757976,0.9026416,10.532414,-3.4594684,7.088231,17.755527,,666,6:23:56,6.192000103
2357,6:15:30,-0.65124273,1.3072741,9.627379,-3.3534245,7.535314,16.55907,,,,
2358,6:15:30,-0.69912827,1.3743137,9.6585045,-3.191446,7.818297,16.409748,,667,6:23:57,8.135999966
2359,6:15:30,-0.818842,1.1923488,10.00328,-3.3383625,7.5297227,17.305943,,,,
2360,6:15:30,-0.102953814,1.5586729,10.252285,-2.449899,8.007696,16.992056,,668,6:23:58,10.25999966
2361,6:15:30,0.6392714,1.489239,9.900327,-1.6624482,8.051366,17.12186,,,,
2362,6:15:30,0.00478855,1.2641771,10.520444,-1.9688047,7.9680185,17.001764,,669,6:23:59,11.48400021
2363,6:15:31,-0.22266756,1.7119064,9.62259,-2.299606,8.310585,16.304438,,,,
